time,acc.x,acc.y,acc.z,
31749,-0.0008007232681848109,-0.008882487192749977,0.9988008141517639,
31849,-0.0016253672074526548,-0.009130105376243591,1.002239465713501,
31949,-0.0022878742311149836,-0.010655548423528671,0.9997866153717041,
32049,-0.002437489340081811,-0.0096674095839262,1.0003173351287842,
32149,-0.002470859559252858,-0.009568174369633198,0.9987992644309998,
32249,-0.0019662564154714346,-0.009657167829573154,1.0006062984466553,
32349,-0.002009600168094039,-0.008798879571259022,0.9995240569114685,
32449,-0.0015345662832260132,-0.009651237167418003,0.9985618591308594,
32549,-0.001935404259711504,-0.008842389099299908,0.9993395805358887,
32649,-0.003257476259022951,-0.008661371655762196,1.0004918575286865,
32749,-0.0008352406439371407,-0.010502777062356472,1.0009312629699707,
32849,-0.0020826375111937523,-0.009204583242535591,0.9991931915283203,
32949,-0.002801757538691163,-0.007894100621342659,0.9995206594467163,
33049,-0.0025701557751744986,-0.007482166867703199,0.9986028075218201,
33149,-0.0015693831956014037,-0.008821694180369377,0.9994478821754456,
33249,-0.003286456922069192,-0.00853026658296585,0.9990837574005127,
33350,-0.002750539220869541,-0.00815487839281559,1.0013700723648071,
33450,-0.003802146762609482,-0.010747065767645836,0.9995447993278503,
33550,-0.001554506248794496,-0.00952205155044794,0.9991704225540161,
33649,-0.0018459741258993745,-0.010280340909957886,0.9996461868286133,
33749,-0.0012668477138504386,-0.009600814431905746,0.9988511204719543,
33849,-0.003984906245023012,-0.010343757458031178,0.9989104866981506,
33949,-0.012504723854362965,0.004937806166708469,1.0026170015335083,
34049,-0.006703168153762817,-0.02940436080098152,1.1514936685562134,
34149,-0.01341908611357212,0.007723103277385235,1.149295687675476,
34249,0.009220940992236137,-0.04038112983107567,1.1098980903625488,
34349,0.04973672702908516,0.06201905384659767,0.9449806809425354,
34449,0.026302294805645943,0.07759682834148407,0.9999498724937439,
34550,0.0037530555855482817,0.007273291703313589,1.0244581699371338,
34649,-0.03773600980639458,0.0020311325788497925,1.0755621194839478,
34749,0.028533872216939926,0.04671072959899902,1.0562090873718262,
34849,0.01876966655254364,0.01773345097899437,1.0213335752487183,
34949,-0.0005296963499858975,0.016591882333159447,1.0130677223205566,
35049,-0.005721222143620253,0.039559587836265564,0.9425299167633057,
35149,0.005565307568758726,0.06894238293170929,0.9379842281341553,
35249,-0.007436672691255808,0.0315488763153553,0.9824739694595337,
35349,0.013267398811876774,0.01892518810927868,1.017110824584961,
35449,0.041041914373636246,0.03930229693651199,1.015880823135376,
35549,-0.001083834795281291,0.058146968483924866,1.0649791955947876,
35649,0.03985815867781639,0.06178775802254677,0.9930296540260315,
35749,-0.010505271144211292,0.003664398565888405,1.032710075378418,
35849,-0.0038263534661382437,0.002532433718442917,1.0089311599731445,
35949,0.002078595571219921,0.009481553919613361,1.0243091583251953,
36049,0.01712092198431492,0.031349439173936844,0.9667681455612183,
36149,-0.009666355326771736,0.039702072739601135,0.9840996265411377,
36249,0.03235473856329918,0.051887817680835724,0.9299878478050232,
36349,0.003743197536095977,0.01585993357002735,0.9275893568992615,
36449,0.00944097526371479,0.031103558838367462,0.9505350589752197,
36549,-0.020419660955667496,0.04399111866950989,0.96083664894104,
36649,-0.0035191995557397604,0.010571088641881943,0.9965529441833496,
36749,0.008784615434706211,0.05718747898936272,0.9810100197792053,
36849,-0.00012929730291943997,0.04750413820147514,0.9598785042762756,
36949,0.0016092510195448995,0.02821926400065422,1.0023431777954102,
37049,0.006897116079926491,0.027568263933062553,0.9833558797836304,
37149,-0.007951588369905949,-0.013514126650989056,0.9983296394348145,
37249,0.004137550946325064,0.036852940917015076,0.983016312122345,
37349,-0.005862310994416475,0.03270512819290161,0.9957743287086487,
37449,0.040931474417448044,0.055472180247306824,0.951912522315979,
37549,-0.014030837453901768,0.045917585492134094,1.0285513401031494,
37649,0.014426746405661106,0.041266776621341705,0.9851828217506409,
37749,0.0343560129404068,0.09796496480703354,0.9622936844825745,
37849,0.010502448305487633,0.03477977216243744,0.9647353291511536,
37949,-0.0017276721773669124,0.00519324978813529,1.012117624282837,
38049,-0.015721889212727547,0.022692697122693062,0.9974590539932251,
38149,0.011838497593998909,0.0307404026389122,1.0132335424423218,
38249,0.015543120913207531,0.07390360534191132,1.000815987586975,
38349,0.006649825721979141,0.02571263164281845,1.0048909187316895,
38449,-0.0029415946919471025,0.047018490731716156,0.9971317052841187,
38549,-0.0005045371362939477,0.005936714354902506,1.0086555480957031,
38649,-0.027244843542575836,0.05170254409313202,1.0300148725509644,
38749,-0.01110327523201704,0.0002059955440927297,1.0348031520843506,
38849,-0.0025609363801777363,0.006382282357662916,0.9788740277290344,
38949,-0.001302272081375122,0.022442476823925972,0.9836198687553406,
39049,0.020503543317317963,0.0352797731757164,0.9818851351737976,
39149,0.008207980543375015,0.035673387348651886,0.9958397150039673,
39249,0.03829982876777649,0.07500933855772018,0.9819543361663818,
39349,-0.012874284759163857,0.008888063952326775,1.0259793996810913,
39449,-0.010993718169629574,0.01764904521405697,1.0516819953918457,
39549,0.01789562590420246,0.043885789811611176,0.9994528293609619,
39649,-0.007657918613404036,0.012358486652374268,0.9787757992744446,
39749,0.02534456178545952,0.04161160811781883,0.9713461399078369,
39849,0.010864154435694218,0.07487241923809052,0.9789679646492004,
39949,-0.0012478501303121448,-0.021476985886693,1.018631100654602,
40049,-0.028610248118638992,0.017986344173550606,1.0143933296203613,
40149,0.010130437090992928,0.022734712809324265,1.021511197090149,
40249,-0.017451277002692223,-0.026450054720044136,1.0332764387130737,
40349,-0.02604324370622635,-0.007238375023007393,1.052499532699585,
40449,0.018577102571725845,0.0453890785574913,0.9847668409347534,
40549,-0.0072542829439044,0.03447042778134346,1.0064669847488403,
40649,0.0002968019398394972,0.00934607069939375,0.9994426369667053,
40749,0.007921047508716583,0.05689351633191109,0.9788696765899658,
40849,-0.020948728546500206,0.03254173323512077,1.0102497339248657,
40949,-0.002236770000308752,0.014562856405973434,0.9984076023101807,
41049,0.0029151453636586666,0.04421946033835411,0.9637332558631897,
41150,0.01712748035788536,0.04979122430086136,0.9797419309616089,
41250,0.029390927404165268,0.07489337027072906,0.9854670166969299,
41349,-0.017337586730718613,-0.02785698138177395,1.0007436275482178,
41449,-0.01941535249352455,-0.004820952191948891,1.0434753894805908,
41549,-0.007533167023211718,-0.00039679461042396724,1.031481146812439,
41649,-0.009320694021880627,-0.008122862316668034,1.0358062982559204,
41749,0.006141966208815575,0.06254976242780685,0.9617167115211487,
41849,-0.0034137486945837736,-0.02672593668103218,1.0033305883407593,
41949,-0.012903538532555103,0.005227345507591963,1.022215723991394,
42049,-0.01590617373585701,-0.0160154290497303,1.0353460311889648,
42149,-0.006380792707204819,0.0036423897836357355,1.0077000856399536,
42249,0.00540164764970541,0.04577566310763359,1.016602635383606,
42349,0.0028533521108329296,-0.00513873714953661,1.0196398496627808,
42449,0.03414882719516754,0.06280427426099777,0.9671821594238281,
42549,-0.008851399645209312,-0.014207163825631142,1.0136550664901733,
42649,0.0076555185951292515,0.028116099536418915,1.0013288259506226,
42749,0.013824058696627617,0.020846661180257797,0.9898176789283752,
42849,0.026966141536831856,0.033109281212091446,0.968360185623169,
42949,-3.1848994694883004e-05,0.01934877596795559,1.0054726600646973,
43049,0.015603826381266117,0.021225908771157265,0.9627045392990112,
43149,0.008189328946173191,0.038012515753507614,0.9758747816085815,
43249,0.007563603110611439,0.037984833121299744,0.9920076727867126,
43349,0.014399274252355099,0.08362971991300583,0.9873504042625427,
43449,-0.02015034854412079,-0.022115491330623627,1.0421315431594849,
43549,-0.01252025831490755,0.06510712951421738,0.9708054661750793,
43649,-0.01003743801265955,-0.018527815118432045,1.0352284908294678,
43749,-0.0034289865288883448,-0.0006110843387432396,1.0220798254013062,
43849,-0.01783216930925846,0.02214009128510952,1.0611740350723267,
43949,-0.014380978420376778,0.01049425732344389,0.9976109266281128,
44049,-0.026218967512249947,-0.008074709214270115,1.0504097938537598,
44150,0.03692541643977165,0.051328059285879135,0.9568480849266052,
44249,-0.013764106668531895,0.0051562893204391,0.9979393482208252,
44349,0.002254660241305828,0.055971886962652206,0.9902622103691101,
44449,-0.014485307969152927,0.03265199065208435,1.000907301902771,
44549,-0.004566740244626999,0.013462717644870281,1.0232897996902466,
44649,-0.012666746973991394,0.0070838965475559235,1.0033118724822998,
44749,-0.024325570091605186,0.0025591899175196886,1.0391815900802612,
44849,-0.010479801334440708,0.04391893371939659,0.9675376415252686,
44949,-0.008123314939439297,-0.0053628114983439445,1.0438728332519531,
45049,0.007185011170804501,0.046307358890771866,0.991957426071167,
45149,-0.023466238752007484,-0.04101472347974777,1.057119369506836,
45249,-0.011667916551232338,0.015962226316332817,1.0257713794708252,
45349,-0.015024208463728428,0.05649319663643837,0.9645241498947144,
45449,0.011569236405193806,0.0426163449883461,0.9724321365356445,
45549,-0.011997837573289871,-0.010337838903069496,1.0190314054489136,
45649,-0.017501642927527428,0.006888876669108868,1.0021148920059204,
45749,0.011321929283440113,0.028662996366620064,1.0114624500274658,
45849,-0.0006687055574730039,-0.012482143007218838,1.0021580457687378,
45949,-0.030127068981528282,0.01931382529437542,1.0169235467910767,
46049,-0.011951853521168232,0.009188393130898476,0.9968056678771973,
46149,-0.00492074666544795,0.006954500451683998,1.0046972036361694,
46249,-0.0075116148218512535,0.05520644783973694,0.9997924566268921,
46349,-0.028434155508875847,-0.02460847608745098,1.0420503616333008,
46449,-0.010672204196453094,-0.015021707862615585,1.0147238969802856,
46549,-0.014737965539097786,0.02418532781302929,0.978991687297821,
46649,-0.0017601668369024992,-0.001415652222931385,1.0219799280166626,
46749,-0.013697361573576927,-0.03983355313539505,1.0500859022140503,
46849,-0.015064750798046589,-0.0124784791842103,1.0405511856079102,
46949,0.0005087635945528746,0.009524013847112656,1.0204191207885742,
47049,0.0018884725868701935,0.001260490040294826,1.0006401538848877,
47149,0.0027189492247998714,0.04299869388341904,0.985924482345581,
47249,0.07061360776424408,0.06340008974075317,0.9598994255065918,
47349,0.005480610299855471,0.03650134429335594,1.0033529996871948,
47449,0.001253221184015274,0.001131923054344952,1.0319424867630005,
47549,0.013345819897949696,0.01138439029455185,0.9850863218307495,
47649,0.019519951194524765,0.06577841192483902,0.9913149476051331,
47749,0.010141639038920403,0.005232215393334627,0.996989905834198,
47849,0.005223201587796211,0.00738940853625536,1.006735920906067,
47949,0.00946731399744749,0.0072565325535833836,1.016244649887085,
48049,0.019907351583242416,0.020771842449903488,0.98906409740448,
48149,-0.013817361555993557,-0.006329480092972517,1.0243529081344604,
48249,0.006492418237030506,0.022629711776971817,1.0083011388778687,
48349,-0.0043737455271184444,0.019034449011087418,0.9946587681770325,
48450,-0.01042813342064619,-0.004916636738926172,1.0290346145629883,
48549,0.011969896033406258,0.03842584788799286,0.9991278052330017,
48650,0.03775645047426224,0.02889123745262623,0.9638248682022095,
48749,0.004783873911947012,0.015942629426717758,0.983447790145874,
48849,-0.024883676320314407,-0.02192300744354725,1.0162551403045654,
48949,-0.027310950681567192,-0.01216066163033247,1.012363314628601,
49049,-0.0009624855010770261,0.006689279340207577,1.0149235725402832,
49149,-0.0073275817558169365,0.0013344549806788564,1.0119878053665161,
49249,-0.006875591352581978,0.008324822410941124,1.010427713394165,
49349,0.011485949158668518,0.0035933309700340033,0.9998028874397278,
49449,0.0006494969711638987,0.014607278630137444,1.0179240703582764,
49549,0.019020017236471176,0.09525101631879807,0.9654672741889954,
49649,0.019694749265909195,0.02007119730114937,0.988438606262207,
49749,0.011642565950751305,0.06279413402080536,0.9721283316612244,
49849,-0.001236713957041502,0.04633697494864464,0.9864287972450256,
49949,-0.0018403235590085387,0.021834861487150192,1.012176752090454,
50049,-0.002918827347457409,-0.01057841069996357,0.9942665100097656,
50149,-0.0122658871114254,0.05978148430585861,0.9880976676940918,
50249,-0.009103112854063511,0.04355720430612564,0.9809396266937256,
50349,0.00031173540628515184,-0.011369421146810055,1.0058575868606567,
50449,-0.014931301586329937,0.034233320504426956,1.014312744140625,
50549,0.037365593016147614,0.025280969217419624,0.9761567711830139,
50649,0.008165711537003517,0.03110279142856598,0.9852955937385559,
50749,0.016316793859004974,0.03420797362923622,0.9891788363456726,
50849,-0.007748425472527742,0.010821432806551456,1.0215988159179688,
50949,0.008523199707269669,0.05650471895933151,0.9957412481307983,
51049,0.00967257097363472,0.022229492664337158,0.9987425208091736,
51149,-0.039498720318078995,-0.007736172527074814,1.0405566692352295,
51249,-0.012466924265027046,0.01415703073143959,1.02293860912323,
51349,0.007516795769333839,0.08087755739688873,0.9766903519630432,
51449,0.02060600556433201,0.0142445657402277,0.993948757648468,
51549,0.003741566790267825,0.0035220852587372065,1.005296230316162,
51649,-0.0013602802064269781,0.027698315680027008,0.9987469911575317,
51749,0.016787627711892128,0.06435105949640274,0.9758193492889404,
51849,-0.008994619362056255,0.016497330740094185,0.9911384582519531,
51949,-0.00975837279111147,0.0016153291799128056,1.0339012145996094,
52049,-0.003444990608841181,0.02877044677734375,1.018510341644287,
52149,-0.007039450109004974,-0.02913653664290905,1.0121722221374512,
52249,0.02916850335896015,0.03207661956548691,0.9771601557731628,
52349,-0.0021140004973858595,0.07877124100923538,0.9942271709442139,
52449,-0.016788585111498833,-0.0024383130948990583,1.0480822324752808,
52549,-0.000790206715464592,0.006426074076443911,1.025259017944336,
52649,0.011002222076058388,0.0615987591445446,1.023293137550354,
52749,0.002935175783932209,0.03055628389120102,1.0417317152023315,
52849,-0.001049670623615384,-0.019261131063103676,1.0382710695266724,
52949,-0.028375694528222084,-0.003273718524724245,1.0280754566192627,
53049,0.0019794863183051348,0.042719654738903046,0.9850523471832275,
53149,0.0017418552888557315,0.021058162674307823,0.9877458810806274,
53249,-0.013428522273898125,-0.02411733567714691,1.0215513706207275,
53349,-0.025431474670767784,0.0062061455100774765,1.0573283433914185,
53449,0.010158339515328407,0.0070389253087341785,0.9989752173423767,
53549,-0.0022553030867129564,0.03350963443517685,1.0008889436721802,
53649,0.015949377790093422,0.031050125136971474,0.97773677110672,
53749,0.0066398801282048225,0.054249972105026245,0.9732893109321594,
53849,0.003154713660478592,0.01169518567621708,0.9896619319915771,
53949,0.008460411801934242,0.09725269675254822,0.9872145652770996,
54049,0.012504358775913715,0.06541503220796585,0.9909983277320862,
54149,-0.018664823845028877,-0.00854565855115652,1.040981650352478,
54249,0.023392727598547935,0.05015464499592781,1.0006474256515503,
54349,0.01024429127573967,0.009312823414802551,1.0080029964447021,
54449,0.013902980834245682,0.05147562175989151,0.9880345463752747,
54549,0.00935210008174181,0.04965035617351532,0.9829477071762085,
54649,-0.004253792110830545,0.039891429245471954,0.9779456853866577,
54749,0.008637671358883381,0.034728094935417175,0.9878409504890442,
54849,0.014839950017631054,0.04792892560362816,1.014872670173645,
54949,-0.012469979003071785,-0.006926156114786863,1.0049968957901,
55049,0.0062845563516020775,0.0598406046628952,0.9954630732536316,
55149,-0.012940803542733192,0.042529281228780746,1.0164623260498047,
55249,-0.00974939577281475,0.042181260883808136,0.985327422618866,
55349,-0.0019185693236067891,0.02885129302740097,0.9958564043045044,
55449,0.018628453835844994,0.06908490508794785,0.9793541431427002,
55549,0.0382193922996521,0.09428004175424576,0.9810986518859863,
55649,-0.0032701853197067976,0.08028621226549149,0.9782578945159912,
55749,0.016960809007287025,0.06480588763952255,0.9906598329544067,
55849,-0.016352999955415726,0.016717934980988503,1.009427547454834,
55949,-0.008778156712651253,0.02558720111846924,0.9976488947868347,
56049,0.02456439845263958,0.06559114158153534,0.9712985754013062,
56149,-0.02666831761598587,-0.03850448876619339,1.0473145246505737,
56250,-0.007425326853990555,0.013030261732637882,0.9942061305046082,
56350,0.008159260265529156,0.038029368966817856,0.9890757203102112,
56449,0.0212322436273098,0.06384352594614029,0.9862868785858154,
56549,-0.011070014908909798,0.02150876447558403,0.9994979500770569,
56649,0.005219726823270321,-0.03604374825954437,0.9990782141685486,
56749,0.026885634288191795,0.059271808713674545,0.9487221240997314,
56849,-0.025352202355861664,-0.004245130345225334,1.0332058668136597,
56949,0.02692379243671894,0.05950360745191574,0.9724295139312744,
57049,0.04639295116066933,0.03647571802139282,0.9656143188476562,
57149,-0.00681820185855031,0.009076816961169243,1.02708101272583,
57249,0.00189790700096637,0.017207087948918343,1.010504961013794,
57349,0.012013515457510948,0.0443744994699955,0.995521068572998,
57449,0.01658821292221546,0.029744228348135948,0.9750107526779175,
57549,-0.006246088072657585,-0.004505830816924572,1.034204125404358,
57649,0.006751455832272768,0.04374980926513672,0.9455392956733704,
57749,-0.01145883183926344,-0.002932621631771326,1.0146963596343994,
57849,0.018391750752925873,0.015009059570729733,1.003498911857605,
57949,0.002645287662744522,0.05414063483476639,1.0000557899475098,
58049,-0.0009949398227036,-0.009289215318858624,1.0365688800811768,
58149,0.03274935856461525,0.05005854740738869,0.9578384757041931,
58249,0.021117189899086952,0.03183329477906227,0.9916616082191467,
58349,0.0013409453677013516,0.00045595658593811095,1.001635193824768,
58449,-0.0007268917979672551,0.014907225035130978,1.0010576248168945,
58549,0.03210214152932167,0.035286013036966324,0.9546225666999817,
58649,-0.01374615728855133,0.06867016106843948,0.9976502656936646,
58749,-0.01074289996176958,-0.009625873528420925,1.0120329856872559,
58849,0.012414095923304558,0.018671900033950806,0.9948598146438599,
58949,0.010329782031476498,0.03494974598288536,0.9929504990577698,
59049,-0.012244299054145813,0.015309715643525124,1.010788083076477,
59149,-0.0135622164234519,0.026873474940657616,1.018544316291809,
59249,0.005479499697685242,0.03546448051929474,1.0400322675704956,
59349,0.000803255767095834,-0.007306309882551432,1.0117676258087158,
59449,0.0005599469877779484,0.02481877990067005,1.0011217594146729,
59549,0.030919700860977173,0.06581318378448486,0.9578312039375305,
59649,-0.01392613910138607,-0.020294252783060074,1.0249251127243042,
59749,-0.0058972397819161415,0.06786990910768509,1.0155590772628784,
59849,-0.0018249985296279192,-0.022869497537612915,1.030745506286621,
59949,0.04027913138270378,0.04426617920398712,0.977587103843689,
60049,-0.0069385794922709465,0.012817712500691414,1.0341941118240356,
60149,-0.02142244763672352,0.020367590710520744,1.011308193206787,
60249,0.013924959115684032,0.05055183544754982,0.9689855575561523,
60349,0.011332694441080093,0.025294918566942215,0.9720178842544556,
60449,0.018778661265969276,0.06103895604610443,0.973143994808197,
60549,0.026483645662665367,0.04484285041689873,0.980282187461853,
60649,0.014485163614153862,0.0351325199007988,0.9803411960601807,
60749,0.008725269697606564,0.029147133231163025,1.0192880630493164,
60849,0.014646015129983425,0.054559916257858276,0.9743419885635376,
60949,-0.0101024704053998,0.032243553549051285,0.9838376045227051,
61049,-0.012405963614583015,-0.008580912835896015,1.0278561115264893,
61149,-0.012357600964605808,0.03219659999012947,0.9946898818016052,
61249,0.015779126435518265,0.018261851742863655,1.0165717601776123,
61349,-0.00735278008505702,-0.005835958756506443,1.0239920616149902,
61449,-0.0010885953670367599,0.06348643451929092,0.9774786233901978,
61549,-0.009153232909739017,0.03785933554172516,0.9982002973556519,
61649,0.01810694858431816,0.013144919648766518,0.9844735860824585,
61749,-0.01025065965950489,0.013053611852228642,1.005278468132019,
61849,-0.007872071117162704,0.0033293135929852724,0.9856849908828735,
61949,0.0027211327105760574,0.014628853648900986,0.987335205078125,
62049,-0.014373268000781536,-0.0014348054537549615,1.0218403339385986,
62149,0.000942673534154892,-0.008836326189339161,1.0193322896957397,
62249,-0.005607075989246368,0.0215059295296669,1.0234589576721191,
62349,-0.016954660415649414,-0.0007081676158122718,1.016270637512207,
62449,-0.0019066785462200642,0.012859457172453403,1.0025686025619507,
62549,-0.006682659033685923,0.01884937286376953,0.9979776740074158,
62649,0.0005561611033044755,0.01964857615530491,1.007286548614502,
62749,-0.012195113115012646,0.010960504412651062,1.0154764652252197,
62849,0.00028118802583776414,0.034612495452165604,0.9958968162536621,
62949,0.0071108583360910416,0.06498125195503235,0.9909531474113464,
63049,0.0022821605671197176,0.04273156076669693,0.9912753105163574,
63149,-0.0021033401135355234,0.02976720780134201,1.0040316581726074,
63249,0.01175648346543312,0.03078228421509266,0.9697907567024231,
63349,0.010191407985985279,0.03102031908929348,0.9870232939720154,
63449,0.005675094667822123,0.02406284026801586,0.9937159419059753,
63549,0.005884074606001377,0.05303443968296051,0.9782933592796326,
63649,0.005097616463899612,0.046080078929662704,0.9887712001800537,
63749,0.0030611383263021708,0.002982158912345767,1.0054543018341064,
63849,-0.007999269291758537,0.01200290396809578,1.006762146949768,
63949,-0.0014143072767183185,0.04613196477293968,0.9985438585281372,
64049,0.018369950354099274,0.031123563647270203,0.9810807704925537,
64149,0.013165881857275963,0.0383807048201561,0.9980664849281311,
64249,0.00017094328359235078,0.06685825437307358,0.983177125453949,
64349,0.03404365852475166,0.014012720435857773,1.0039774179458618,
64449,-0.006507656536996365,0.010638011619448662,1.0218794345855713,
64549,0.008383195847272873,0.017868362367153168,1.003886103630066,
64649,-0.0002938826510217041,0.004667910281568766,0.9996737837791443,
64749,0.003992138430476189,0.014607623219490051,1.0307551622390747,
64849,0.010188568383455276,0.025525428354740143,1.0038288831710815,
64949,0.001264819409698248,0.038875143975019455,0.9951533675193787,
65049,0.0076180389150977135,0.030866550281643867,0.9995259046554565,
65149,0.001024272060021758,0.021438229829072952,1.008060097694397,
65249,0.016202878206968307,0.0009316725190728903,1.0022690296173096,
65349,-0.00868828222155571,0.028007015585899353,0.9895544052124023,
65449,3.867471241392195e-05,0.016332823783159256,1.0120855569839478,
65549,-0.014296007342636585,0.018025357276201248,1.0086603164672852,
65649,-0.0338861383497715,-0.016448188573122025,1.0331127643585205,
65749,-0.030032657086849213,-0.03550345078110695,1.0437120199203491,
65849,-0.027224911376833916,-0.008377548307180405,1.0381557941436768,
65949,0.000700558302924037,0.02383662760257721,0.966517984867096,
66049,0.015074023976922035,0.07652334123849869,0.9832726716995239,
66149,0.0017990226624533534,0.045401431620121,0.9817208051681519,
66249,0.0033891962375491858,0.029849153012037277,0.9787600636482239,
66349,0.018611419945955276,0.026425493881106377,1.0022386312484741,
66449,0.007000255864113569,0.03732854872941971,0.9912176132202148,
66549,0.00300847040489316,0.03727663308382034,0.9910655617713928,
66649,-0.005067712161689997,-0.0029097902588546276,1.0294098854064941,
66749,-0.018690790981054306,0.050424039363861084,1.0053718090057373,
66849,0.01361512765288353,0.045453544706106186,0.9881083369255066,
66949,0.01562384981662035,0.05813143029808998,0.9793677926063538,
67049,-0.0029864360112696886,-2.93225934910879e-06,0.9928892254829407,
67149,-0.01709693670272827,0.017091279849410057,1.015917181968689,
67249,-0.004583852365612984,0.02792300470173359,1.0022504329681396,
67349,0.015379362739622593,0.037248603999614716,0.9604883193969727,
67449,0.002608909271657467,0.016290932893753052,1.03061842918396,
67549,0.008427026681602001,0.026577388867735863,1.017539143562317,
67649,-0.009794042445719242,0.028931841254234314,1.0077322721481323,
67749,0.017989521846175194,0.008763711899518967,1.008549451828003,
67849,-0.01713794656097889,0.012257522903382778,1.0047869682312012,
67949,-0.009154248982667923,-0.02442227303981781,1.0267689228057861,
68049,0.012823528610169888,0.010540722869336605,0.9923153519630432,
68149,0.01900736428797245,0.001952196005731821,0.9997132420539856,
68249,-0.018500933423638344,0.00640807393938303,0.9922564029693604,
68349,0.004053071141242981,0.008592190220952034,1.0045926570892334,
68449,-0.00829186849296093,0.05859792232513428,0.9874870777130127,
68549,-4.285348768462427e-05,0.028252892196178436,1.02726149559021,
68649,0.002622556174173951,0.013310311362147331,1.0053082704544067,
68749,-0.0032017517369240522,0.017063366249203682,1.0000640153884888,
68849,0.021060701459646225,0.012642127461731434,0.9997595548629761,
68949,-0.01576681062579155,0.0005996476975269616,1.0186961889266968,
69049,0.010432406328618526,0.038426898419857025,0.9758102297782898,
69149,-0.015179228037595749,-0.0023246794007718563,1.02823805809021,
69249,0.005242920480668545,0.03721530735492706,0.9654416441917419,
69349,0.007251907605677843,0.02604655735194683,1.0098680257797241,
69449,0.015553433448076248,0.032920077443122864,0.9968633651733398,
69549,0.0055033061653375626,0.029997123405337334,0.9867523312568665,
69649,-0.009321668185293674,-0.014249004423618317,1.0227622985839844,
69749,-0.006500177551060915,-0.01210701372474432,1.020677924156189,
69849,-0.005183192435652018,-0.021218081936240196,1.045082688331604,
69949,-0.014477475546300411,0.01316158752888441,1.0182479619979858,
70049,0.01277659460902214,-0.015795813873410225,0.9838477373123169,
70149,0.03049309179186821,0.019598567858338356,0.9776854515075684,
70249,0.03474322706460953,0.04319862648844719,0.9777688384056091,
70349,-0.0061186267994344234,0.02135259285569191,1.0042897462844849,
70449,-0.0003643580712378025,0.04989377409219742,0.9952606558799744,
70549,-0.0065743885934352875,0.02824387513101101,0.9811711311340332,
70649,0.0012708406429737806,0.03208652883768082,0.9953500032424927,
70749,-0.014270155690610409,-0.003803744213655591,0.9923480153083801,
70849,-0.002547426847741008,0.06481911242008209,0.9924068450927734,
70949,-0.004916036035865545,-0.006047800183296204,1.0089465379714966,
71050,0.007583674509078264,0.03897283226251602,1.0007500648498535,
71149,-0.00590011989697814,0.018807413056492805,1.0158554315567017,
71249,-0.011310229077935219,-0.011060213670134544,1.0313425064086914,
71349,0.02757894992828369,0.01768551394343376,0.9903438687324524,
71449,0.00790305994451046,0.03951786458492279,0.9966326355934143,
71549,0.0024638569448143244,0.04442649334669113,1.0018386840820312,
71650,-0.005127109121531248,0.06793933361768723,0.9760580658912659,
71749,0.0025279687251895666,0.010168546810746193,1.0031012296676636,
71849,-0.029117576777935028,-0.0007181005203165114,0.9779863953590393,
71949,0.014942548237740993,0.03190353885293007,1.0043389797210693,
72049,-0.0064785778522491455,0.004979417659342289,1.0241971015930176,
72149,-0.0001204067375510931,0.026536811143159866,1.0248202085494995,
72249,-0.009318966418504715,-0.008120887912809849,0.9980319142341614,
72349,0.021027319133281708,0.056595418602228165,0.981266438961029,
72449,0.00510634109377861,0.018271032720804214,0.9733871817588806,
72549,0.013184105977416039,0.004449841566383839,0.9879997968673706,
72649,0.014591996558010578,0.023353544995188713,0.9725600481033325,
72749,0.000784657895565033,0.05204939469695091,1.0055662393569946,
72849,-0.021632911637425423,0.006390856113284826,1.0433639287948608,
72949,-0.008027632720768452,0.005676416680216789,1.035018801689148,
73049,-0.00039259158074855804,0.031046077609062195,1.033102035522461,
73149,0.02494058944284916,0.06174802780151367,0.9869648814201355,
73249,0.011113066226243973,0.06422175467014313,0.9868380427360535,
73349,0.007668746169656515,0.027812128886580467,1.0015850067138672,
73449,0.033388424664735794,0.005631494335830212,0.9799476265907288,
73549,0.048535656183958054,0.09069336205720901,0.9746373295783997,
73649,0.0022090054117143154,0.014237497001886368,0.994819700717926,
73749,0.0039076837711036205,0.030868135392665863,1.0155309438705444,
73849,-0.01368838269263506,0.030681440606713295,0.988339900970459,
73949,-0.025650449097156525,-0.01543862372636795,1.0425173044204712,
74049,0.014784539118409157,0.017337091267108917,0.9860256910324097,
74149,0.0258432999253273,0.10109477490186691,0.9421680569648743,
74249,-0.007146076764911413,0.0262474175542593,0.9982073307037354,
74349,0.009736841544508934,0.02347993664443493,0.9989100694656372,
74449,-0.014014748856425285,0.019453726708889008,1.018209457397461,
74549,0.008991560898721218,0.028311971575021744,1.0013571977615356,
74649,-0.007619407959282398,0.019357753917574883,1.0248271226882935,
74749,-0.028522813692688942,0.017297759652137756,1.0017585754394531,
74849,-0.0011461339890956879,0.02346462570130825,0.9980238676071167,
74949,-0.002045183442533016,0.05388550087809563,0.9853050708770752,
75049,0.0242747962474823,0.05944618582725525,0.9578347206115723,
75149,0.005874816793948412,0.01855447329580784,1.022741675376892,
75249,0.0003074605483561754,0.02329837530851364,0.9907580614089966,
75349,0.0021378204692155123,-0.006001281552016735,1.0232503414154053,
75449,0.012311180122196674,0.01075009535998106,1.022931456565857,
75549,-0.00026428711134940386,0.010512827895581722,0.983650267124176,
75649,0.0012964991619810462,0.01793602667748928,1.003226637840271,
75749,0.006132079754024744,0.020235281437635422,0.996028482913971,
75849,0.005657690577208996,0.021355949342250824,1.0216166973114014,
75949,0.013422422111034393,0.06587470322847366,0.9954315423965454,
76049,-0.007498573046177626,0.008876186795532703,1.01261568069458,
76149,-0.011506646871566772,0.025924474000930786,0.9848474264144897,
76249,0.007326783146709204,0.034108273684978485,0.9988230466842651,
76349,-0.0006635147728957236,0.03672298416495323,0.9840977787971497,
76449,0.004089357331395149,0.034265272319316864,0.997652530670166,
76549,0.018595706671476364,0.04473252221941948,0.9771318435668945,
76649,0.004068177193403244,0.02522348053753376,1.0065747499465942,
76749,0.02824205532670021,0.05552653223276138,0.9763941168785095,
76849,-0.011680874973535538,0.00915092509239912,0.9984465837478638,
76949,0.009480314329266548,0.002994722919538617,1.033037543296814,
77049,-0.027301819995045662,0.03325137495994568,1.0461066961288452,
77149,0.001692304969765246,0.023220444098114967,1.0441800355911255,
77249,0.013902594335377216,0.0028388728387653828,1.009638786315918,
77349,0.00015890278154984117,0.060183245688676834,0.9702759981155396,
77449,-0.023027360439300537,0.03660597652196884,1.0058448314666748,
77549,0.006903159432113171,0.07111823558807373,0.9988906383514404,
77650,-0.015509811230003834,0.04609505459666252,1.020203709602356,
77749,-0.008485238999128342,0.011870567686855793,0.9879162907600403,
77849,-0.0011528853792697191,0.01059858500957489,1.0091267824172974,
77949,-0.004766903351992369,0.029981020838022232,1.0097177028656006,
78049,0.013028823770582676,0.03705394268035889,1.0288586616516113,
78149,-0.0037355676759034395,0.003507590852677822,1.0230656862258911,
78250,0.006074369419366121,0.005235214252024889,0.9974566102027893,
78350,-0.012666254304349422,0.03302238881587982,0.9870480895042419,
78450,0.0018159651663154364,0.04344954714179039,0.9762462377548218,
78549,-0.0073855663649737835,0.004288975149393082,0.9877549409866333,
78649,0.011336226016283035,0.027118168771266937,0.9973179697990417,
78749,0.01570490561425686,0.05929232016205788,0.9916411638259888,
78849,0.005588429048657417,0.03610760346055031,0.974816620349884,
78949,0.006461983546614647,0.036552004516124725,0.9659081697463989,
79049,-0.007357954978942871,-0.006274578161537647,1.0137243270874023,
79149,0.011495702899992466,0.05223758518695831,0.9593189358711243,
79249,-0.018959155306220055,0.010705471970140934,0.9959769248962402,
79349,0.027010099962353706,0.03774762153625488,0.9720858335494995,
79449,-0.01867539994418621,0.010149838402867317,1.0013220310211182,
79549,0.007189752534031868,0.018983623012900352,0.9898366928100586,
79649,-0.010544178076088428,-0.0034813021775335073,1.0325838327407837,
79749,0.004768675193190575,0.029020803049206734,0.986757755279541,
79849,-0.0190338883548975,-0.007081714924424887,1.0487244129180908,
79949,-0.028436655178666115,0.04099751636385918,1.0317764282226562,
80049,0.017155854031443596,0.04097462072968483,0.981257975101471,
80149,0.00911370012909174,0.00618663989007473,0.9858695268630981,
80249,0.005578960757702589,0.03887414559721947,0.9809960126876831,
80349,0.010820954106748104,0.03100070357322693,0.9988632202148438,
80449,-0.029759647324681282,0.02988262102007866,1.025346279144287,
80549,0.011062233708798885,0.056376539170742035,0.9792977571487427,
80649,-1.5963702026056126e-05,0.021778443828225136,0.9931433200836182,
80749,-0.00458534387871623,0.040682919323444366,0.9855347871780396,
80849,-0.02609601803123951,-0.021413365378975868,1.0511842966079712,
80949,-0.010986264795064926,0.009820855222642422,1.0340443849563599,
81049,0.0007051920401863754,0.047588735818862915,1.0082520246505737,
81149,-0.003529388690367341,-0.019576910883188248,1.0188829898834229,
81249,-0.007516367360949516,0.03774582967162132,1.0141030550003052,
81349,-0.011268677189946175,0.016525207087397575,0.9754421710968018,
81449,0.003183764638379216,0.03177741542458534,0.9836558103561401,
81549,0.006551104132086039,0.040774933993816376,1.0011907815933228,
81649,-0.004579090978950262,0.015699949115514755,1.003282070159912,
81749,0.011321576312184334,0.06663534790277481,0.9755127429962158,
81849,0.007973741739988327,0.03049997240304947,1.0354498624801636,
81949,0.00043666857527568936,0.055782102048397064,0.998149573802948,
82049,-0.0023560666013509035,0.01005152054131031,1.009230136871338,
82149,0.004286378156393766,0.047440044581890106,0.9998976588249207,
82249,0.008536395616829395,0.05088677629828453,1.0229028463363647,
82349,0.01227322407066822,0.07004176825284958,0.9899525046348572,
82449,0.028354784473776817,0.04890676215291023,0.9882528185844421,
82549,0.009762530215084553,0.034115273505449295,0.9881354570388794,
82649,-0.006545442622154951,0.013358768075704575,1.0278913974761963,
82749,-0.015736250206828117,-0.040810517966747284,1.0242619514465332,
82849,0.0012254351750016212,0.06940850615501404,0.9832382798194885,
82949,-0.023842990398406982,0.05515940859913826,1.0124435424804688,
83049,-0.0181740652769804,0.013376287184655666,1.012629508972168,
83149,-0.003642053110525012,0.02459762804210186,1.0130122900009155,
83249,-0.008879894390702248,0.003499584272503853,1.0290582180023193,
83349,-0.013068879954516888,0.0077259596437215805,1.0237033367156982,
83449,0.026913121342658997,0.043871648609638214,0.9714555144309998,
83549,-0.0011124230222776532,0.03927223011851311,1.0061718225479126,
83649,-0.006957002449780703,0.04654790461063385,0.991547703742981,
83749,-0.002249358221888542,0.03841100260615349,0.9972295165061951,
83849,0.001558062736876309,0.00821016076952219,0.9685168266296387,
83949,0.03090829774737358,0.07564997673034668,0.9554196000099182,
84049,0.008469420485198498,0.024606432765722275,0.9870977997779846,
84149,-0.00041121337562799454,-0.0037974666338413954,1.0088638067245483,
84249,-0.01073172315955162,0.04012158140540123,1.01321280002594,
84349,-0.0009766079019755125,-0.007366890553385019,1.019326090812683,
84449,-0.0038356692530214787,-0.025052223354578018,1.0221810340881348,
84549,-0.006497005466371775,-0.020255450159311295,0.9979867935180664,
84649,-0.01090345811098814,0.03663477674126625,0.9834598302841187,
84749,0.015965966507792473,0.04433417692780495,0.9973032474517822,
84849,-0.021443389356136322,0.0357397198677063,0.9963771104812622,
84949,-0.00024361272517126054,0.04103891924023628,0.9931011199951172,
85049,0.001705896807834506,0.04605017602443695,1.0397087335586548,
85149,0.003688629949465394,-0.005226164124906063,1.0607175827026367,
85249,-0.010321082547307014,0.009473112411797047,1.0313708782196045,
85349,-0.024096842855215073,-0.028708085417747498,1.0129892826080322,
85449,-0.018929291516542435,0.019766703248023987,0.9819124937057495,
85550,-0.022334853187203407,-0.006507368758320808,1.0435223579406738,
85649,-0.007313670590519905,0.02464025840163231,0.99444979429245,
85749,-0.00843097548931837,0.03186175227165222,1.0036752223968506,
85849,-0.021959859877824783,-0.01098471600562334,1.0338337421417236,
85949,-0.001195640885271132,0.013725020922720432,0.9967696070671082,
86049,0.008463618345558643,0.07397343218326569,0.9806855320930481,
86150,0.005148652009665966,0.013383723795413971,1.0109418630599976,
86249,-0.021354394033551216,-0.030838031321763992,1.0189366340637207,
86349,0.0021307682618498802,0.03647614270448685,0.9834442138671875,
86449,-0.011933577246963978,0.037527602165937424,1.013532042503357,
86549,-0.014234342612326145,-0.01240047812461853,1.0369004011154175,
86649,-0.022555220872163773,0.0056558107025921345,1.0027241706848145,
86749,-0.025193531066179276,-0.023736514151096344,1.0416072607040405,
86849,-0.013861624523997307,0.04422794654965401,0.9866446852684021,
86949,-0.011566495522856712,0.025503402575850487,0.9985742568969727,
87049,-0.0027722707018256187,0.01560933142900467,0.9873955845832825,
87149,-0.02243930846452713,-0.025855813175439835,1.0314332246780396,
87249,0.017507141456007957,0.04539218544960022,1.0076215267181396,
87349,0.020831197500228882,0.019504033029079437,0.9597280025482178,
87449,-0.019137831404805183,0.016025632619857788,0.9876411557197571,
87549,-0.01970374770462513,0.013223687186837196,0.996374785900116,
87649,-0.016236664727330208,-0.0024317633360624313,0.9879933595657349,
87749,0.02959691546857357,0.083766408264637,0.968203067779541,
87849,-0.012339171022176743,0.019320998340845108,1.0122792720794678,
87949,0.00633297860622406,0.007127288728952408,0.9915304183959961,
88049,-0.004328528884798288,0.04737362638115883,1.010975956916809,
88149,-0.014701103791594505,0.03656657412648201,1.001639723777771,
88249,-0.005372995976358652,0.03170192241668701,1.0199824571609497,
88349,0.013882373459637165,0.062045786529779434,0.9913020133972168,
88449,-0.01066285464912653,-0.00564665999263525,1.0140093564987183,
88549,0.035729166120290756,0.05644097551703453,0.9797190427780151,
88649,0.017263563349843025,0.03221319243311882,0.9774313569068909,
88749,-0.0008163779857568443,0.05982932075858116,0.9644193053245544,
88849,-0.010222013108432293,0.018887603655457497,0.977891206741333,
88949,-0.012258396483957767,0.028755495324730873,1.0257976055145264,
89049,0.0017213799292221665,0.030765919014811516,0.9830155968666077,
89149,-0.01408509723842144,0.017565259709954262,1.0137150287628174,
89249,-0.012083951383829117,0.00555012933909893,1.0239416360855103,
89349,-0.017882922664284706,0.010316208936274052,1.0381954908370972,
89449,-0.011390864849090576,0.016656216233968735,1.040234088897705,
89549,-0.016553374007344246,0.025340285152196884,0.9925792813301086,
89649,-0.008575085550546646,0.04183522239327431,0.9736438989639282,
89749,0.019550058990716934,0.0307453703135252,1.0115832090377808,
89849,-0.003917091526091099,0.02669721655547619,0.988248348236084,
89949,-0.0012828883482143283,0.00874717440456152,1.0281152725219727,
90049,-0.0027635241858661175,0.03762122616171837,1.0164399147033691,
90149,-0.03248876333236694,0.03812722861766815,0.9974819421768188,
90249,0.0022983334492892027,0.047867365181446075,0.9594488143920898,
90349,-0.019206423312425613,0.006062121596187353,1.0109312534332275,
90449,-0.009143141098320484,-0.01644195057451725,1.035285472869873,
90549,-0.018405113369226456,8.246079232776538e-05,1.0434499979019165,
90649,0.02052883803844452,0.05864141881465912,0.928154706954956,
90749,-0.013831096701323986,0.026925602927803993,1.0014854669570923,
90849,-0.005030070897191763,0.0004449688130989671,1.0220946073532104,
90949,-0.017383258789777756,0.04780655726790428,0.9745418429374695,
91049,-0.015518324449658394,0.008091479539871216,1.0449154376983643,
91149,0.017030877992510796,0.06158740818500519,1.0209940671920776,
91249,0.006523423828184605,0.006373201496899128,1.0133557319641113,
91349,-0.011458051390945911,0.05758657306432724,0.9912658929824829,
91449,0.01471403706818819,0.000980571610853076,1.0275852680206299,
91549,-0.027735339477658272,0.025535503402352333,1.014160394668579,
91649,0.03011222742497921,0.09198527783155441,0.9759646058082581,
91749,-0.03849366307258606,-0.009657535701990128,1.069195032119751,
91849,0.013441215269267559,0.03385446220636368,1.0175892114639282,
91949,0.0007056823233142495,-0.010783813893795013,1.0195086002349854,
92049,0.040072377771139145,0.07406242191791534,0.9951058030128479,
92149,0.00033516992698423564,0.025720763951539993,0.9982210993766785,
92249,-0.009876218624413013,0.043841805309057236,1.0132206678390503,
92349,0.006789316888898611,0.023788966238498688,0.96656334400177,
92449,0.0189729742705822,0.05505247041583061,0.9557383060455322,
92549,0.021729350090026855,0.022592172026634216,1.0080891847610474,
92650,0.020470593124628067,0.042435240000486374,1.0031681060791016,
92749,0.018829945474863052,0.054586295038461685,0.9555687308311462,
92849,0.0020266687497496605,0.060060419142246246,1.0018080472946167,
92949,-0.025385281071066856,0.031710922718048096,1.025204062461853,
93049,0.0015003920998424292,0.0008613723912276328,1.0103073120117188,
93149,-0.0018077101558446884,-0.020101914182305336,1.016587257385254,
93249,0.006129213608801365,0.019734272733330727,1.0371648073196411,
93350,0.0157316867262125,0.047943465411663055,0.9596569538116455,
93449,0.014015466906130314,0.09883973747491837,0.9896846413612366,
93549,-0.003503150073811412,0.041951607912778854,0.978029191493988,
93649,0.004054211545735598,0.01794172078371048,1.0133185386657715,
93749,0.01479509100317955,0.02434052899479866,1.0072230100631714,
93849,-0.01382673904299736,-0.005904592107981443,1.038206696510315,
93949,0.003094342304393649,0.05007557570934296,1.0120824575424194,
94049,-0.004642218817025423,-0.023723773658275604,1.014788031578064,
94149,0.004407709464430809,0.018593935295939445,1.0160287618637085,
94249,0.010208495892584324,0.03905448690056801,0.9964685440063477,
94349,-0.00367277511395514,-0.005727983079850674,1.01987624168396,
94449,0.003361313370987773,0.055691901594400406,1.024124026298523,
94549,0.012958408333361149,0.07160153985023499,0.993228554725647,
94649,0.007037065457552671,0.006565968971699476,1.026712417602539,
94749,0.009426804259419441,0.02232922986149788,0.9640755653381348,
94849,0.007623245473951101,0.03185899928212166,0.9751046299934387,
94949,-0.014693262055516243,0.03795136511325836,1.0257728099822998,
95049,0.0003661920491140336,0.041473474353551865,0.9785847067832947,
95149,0.033550698310136795,0.07815591990947723,0.9824000597000122,
95249,0.018780717626214027,0.06434699892997742,1.0020344257354736,
95349,-0.024976534768939018,0.040576327592134476,1.0522905588150024,
95449,0.005478550214320421,0.015153640881180763,1.011899709701538,
95549,-0.002331967931240797,0.06112709268927574,0.9829244017601013,
95649,0.0032091017346829176,0.024835994467139244,0.9962220788002014,
95749,0.022880902513861656,0.036040049046278,0.9974491000175476,
95849,-0.006668547168374062,0.017950626090168953,1.0160855054855347,
95949,0.005716024897992611,0.05758804827928543,0.966334879398346,
96049,0.03820129111409187,0.05982307344675064,0.9711642265319824,
96149,-0.026893606409430504,-0.021967317909002304,1.0301589965820312,
96249,0.0060011250898242,0.06960168480873108,0.9801409840583801,
96349,0.01645691506564617,0.057242635637521744,1.0026540756225586,
96449,0.009573767893016338,0.03461465984582901,0.9931437373161316,
96549,-0.0016011850675567985,0.03320387005805969,1.0231001377105713,
96649,-0.001865714555606246,0.01049336139112711,0.9959797263145447,
96749,0.0041027553379535675,0.04566169157624245,0.9686241745948792,
96849,-0.032568302005529404,0.018871154636144638,1.047570824623108,
96949,-0.009073864668607712,0.005888527259230614,1.0253759622573853,
97049,0.034817662090063095,0.03323004022240639,0.9508199095726013,
97149,0.008493367582559586,0.005113455466926098,1.027015209197998,
97249,-0.007839593105018139,0.04357076436281204,1.0106093883514404,
97349,-0.02777756005525589,0.019312061369419098,1.021307349205017,
97449,0.008008910343050957,0.0872114822268486,0.9196367859840393,
97549,0.012055804952979088,0.031108958646655083,1.0061434507369995,
97649,0.010603874921798706,0.025708548724651337,0.9906396269798279,
97749,-0.006532792001962662,0.006072023883461952,1.0277060270309448,
97849,-0.002554934471845627,-0.012550120241940022,1.0286152362823486,
97949,-0.007705133408308029,0.023091793060302734,1.0135250091552734,
98049,-0.009048291482031345,-0.008541998453438282,1.0047495365142822,
98149,0.017888663336634636,0.0531691238284111,0.9834261536598206,
98249,0.029218146577477455,0.057882655411958694,0.9667438268661499,
98349,0.016597239300608635,0.05188062787055969,0.9809846878051758,
98449,0.025616375729441643,0.021107260137796402,0.9899616241455078,
98549,0.027429720386862755,0.06140616536140442,0.9966222643852234,
98649,0.01200695801526308,0.0842510387301445,0.9315162897109985,
98749,0.008878913708031178,0.036056533455848694,0.9610834121704102,
98849,-0.01129775308072567,0.016920119524002075,0.9891670346260071,
98949,-0.011753953993320465,-0.021397313103079796,1.016018271446228,
99049,-0.013891641981899738,0.02810750901699066,1.0354788303375244,
99149,0.010294576175510883,0.05020386725664139,0.9943232536315918,
99249,0.012234232388436794,0.01481348741799593,1.0060256719589233,
99349,0.00976092740893364,0.03827190026640892,1.0198009014129639,
99449,0.026660017669200897,0.04773664474487305,0.9486135244369507,
99549,0.018428880721330643,0.0735953077673912,0.9930262565612793,
99649,0.02555117756128311,0.04005664587020874,0.9289399981498718,
99749,0.010293014347553253,0.008345196954905987,0.9911113381385803,
99850,0.01298122201114893,0.033385951071977615,1.0085680484771729,
99949,0.006961669772863388,-0.026860732585191727,1.0164201259613037,
100049,0.009727232158184052,0.023934150114655495,1.005100131034851,
100149,-0.0044764569029212,0.03333652764558792,0.9912874102592468,
100249,0.04356909915804863,0.05986756831407547,0.943397045135498,
100349,0.013666696846485138,0.02769636921584606,0.9838547706604004,
100449,-0.0004791598184965551,0.0770358145236969,1.0163166522979736,
100549,0.019351154565811157,0.040932003408670425,0.979885995388031,
100649,0.031764473766088486,0.08962858468294144,0.9939993619918823,
100749,-0.0025444801431149244,0.015347164124250412,0.9881906509399414,
100849,-0.014803138561546803,-0.015174592845141888,1.0518336296081543,
100949,0.0233071930706501,0.02196316234767437,0.9894612431526184,
101049,0.01051395945250988,0.008939861319959164,1.007022738456726,
101149,0.0021954833064228296,0.02474754862487316,0.9932214617729187,
101249,-0.00312701053917408,0.03398323059082031,0.9997289180755615,
101350,0.023504862561821938,0.04255659505724907,1.0180776119232178,
101449,-0.007801496423780918,0.03247988596558571,1.036227822303772,
101549,0.02265668474137783,0.019606150686740875,1.0073031187057495,
101649,0.03205502778291702,0.036878470331430435,0.9767229557037354,
101749,-0.005542126018553972,-0.006167032290250063,1.0283067226409912,
101849,0.010527906939387321,0.020354315638542175,1.0087521076202393,
101949,0.012503609992563725,0.02011953294277191,1.008054256439209,
102049,0.014441954903304577,0.014817062765359879,1.0079094171524048,
102149,0.003920215647667646,0.03663777932524681,1.0015078783035278,
102249,0.018453648313879967,0.029118169099092484,0.9892154335975647,
102349,0.016714319586753845,0.04508564621210098,0.9837568998336792,
102449,0.0070209261029958725,0.02755611576139927,0.9763326048851013,
102549,0.008144441060721874,0.008649074472486973,1.0080899000167847,
102649,-0.005089268554002047,0.0065573398023843765,1.0152791738510132,
102749,0.0027043058071285486,0.05356518551707268,0.9891957640647888,
102849,-0.008123287931084633,0.012975930236279964,0.9783248901367188,
102949,0.03918543830513954,0.07001078128814697,1.0039045810699463,
103049,0.02429383434355259,0.05635306239128113,0.9919414520263672,
103149,0.008351174183189869,0.037899281829595566,1.0106972455978394,
103249,0.005221022758632898,0.04420003667473793,0.9608253836631775,
103349,0.012947537004947662,0.03952290862798691,0.9888967275619507,
103449,0.0023612703662365675,0.02885161153972149,1.0012270212173462,
103549,0.002393790753558278,0.0109093077480793,1.030539870262146,
103649,0.011494182050228119,0.03245030716061592,1.0103055238723755,
103749,0.005751048214733601,0.024760311469435692,1.004631519317627,
103849,-0.006905346643179655,0.0350518636405468,1.0065752267837524,
103949,0.0056387498043477535,0.013497150503098965,0.9900068640708923,
104049,0.01464239414781332,0.059544067829847336,0.9733342528343201,
104149,-0.020140277221798897,0.019832035526633263,1.0271767377853394,
104249,0.021191144362092018,0.019461767747998238,0.9825789332389832,
104349,0.00605006841942668,0.019019249826669693,0.9741694331169128,
104449,-0.0038451116997748613,-0.0027101512532681227,1.0250920057296753,
104549,-0.004168340936303139,0.03290802612900734,1.0128451585769653,
104649,0.00718834949657321,0.016148880124092102,0.9994039535522461,
104749,-0.0022968763951212168,0.01205187477171421,1.0302428007125854,
104849,-0.008194352500140667,0.01595325954258442,1.0241758823394775,
104949,0.020512880757451057,0.023891562595963478,1.0206414461135864,
105049,0.02336418442428112,0.03203924000263214,0.9726101756095886,
105149,-0.006502148229628801,-0.04000214859843254,1.0033173561096191,
105249,0.0028623584657907486,0.018157217651605606,1.001563310623169,
105349,0.01265761163085699,0.0056547424755990505,0.9862219095230103,
105449,0.005953932646661997,0.031528767198324203,1.0083836317062378,
105549,0.031288303434848785,0.03931213542819023,0.9958375096321106,
105650,0.00048657841398380697,0.057419322431087494,0.9778919219970703,
105749,0.00030135249835439026,0.032210759818553925,1.0242918729782104,
105849,-0.0071969847194850445,0.03631220757961273,1.011586308479309,
105949,0.0014688700903207064,0.036326535046100616,1.015622615814209,
106049,0.005352881737053394,0.05431097373366356,0.9870637059211731,
106149,0.02530168555676937,0.054341427981853485,0.9675894379615784,
106249,0.023295933380723,0.007180230226367712,0.991875171661377,
106349,0.020508717745542526,0.08012838661670685,0.998663604259491,
106449,-0.02475358173251152,-0.03364294767379761,1.0386208295822144,
106549,-0.0012354492209851742,-0.0185179952532053,1.0170261859893799,
106649,-0.0025116170290857553,0.05452203378081322,1.0002857446670532,
106749,-0.003966463264077902,0.03511369600892067,1.0053000450134277,
106850,-0.007840712554752827,0.004691716283559799,1.020701289176941,
106949,0.006968178786337376,0.018925655633211136,0.9686950445175171,
107049,0.002308720489963889,0.031191596761345863,0.9864826202392578,
107149,0.0037553056608885527,0.03311789408326149,1.0159714221954346,
107249,0.02235742285847664,0.01965336687862873,0.9957119226455688,
107349,0.0027983561158180237,0.004137125797569752,1.0341531038284302,
107449,-0.007478841580450535,0.036657288670539856,0.9694822430610657,
107549,0.001177254249341786,0.037295546382665634,1.0165128707885742,
107649,0.005460824351757765,0.030612226575613022,1.000489354133606,
107749,0.04759608581662178,0.06417202949523926,0.9821529388427734,
107849,-0.011943737976253033,-0.042404770851135254,1.0444869995117188,
107949,0.007070985622704029,0.045064616948366165,1.0044951438903809,
108049,0.01529963780194521,0.045695312321186066,0.9577157497406006,
108149,0.007509857416152954,0.056387245655059814,0.9852026700973511,
108249,-0.03718433156609535,-0.022458000108599663,1.0702465772628784,
108349,0.013298398815095425,0.07539772242307663,0.9744320511817932,
108449,0.007592375390231609,0.02868380770087242,0.9902240037918091,
108549,0.028427746146917343,0.05904146656394005,0.9756932854652405,
108649,0.012988450936973095,0.060256797820329666,0.9694822430610657,
108749,0.003051541745662689,0.053901053965091705,1.011305332183838,
108849,-0.00830020010471344,0.02714012749493122,1.024766206741333,
108949,0.003375014988705516,0.001297952956520021,1.0336616039276123,
109049,0.043321769684553146,0.08223183453083038,0.9795922040939331,
109149,-0.0023071879986673594,0.03623723238706589,1.026261568069458,
109249,-0.012676985003054142,-0.006756325718015432,1.0247855186462402,
109349,0.024507693946361542,0.031503308564424515,0.9953204393386841,
109449,0.025867726653814316,0.0361122190952301,1.0057867765426636,
109549,-0.011483791284263134,0.015047566033899784,1.0194505453109741,
109649,0.011443879455327988,0.017516927793622017,0.9947453737258911,
109749,-0.012990306131541729,-0.008430869318544865,1.0126575231552124,
109849,-0.0002465650613885373,0.02935800328850746,0.9626851081848145,
109950,-0.0012063567992299795,0.03145497292280197,1.0079500675201416,
110049,0.005985747557133436,0.02686472050845623,0.9978038668632507,
110149,0.039506152272224426,0.11067307740449905,0.951201319694519,
110249,0.0017278904560953379,0.021363096311688423,1.0766078233718872,
110349,-0.028508860617876053,-0.02646476775407791,1.0331394672393799,
110449,0.0008690629620105028,0.030346259474754333,0.9760175943374634,
110549,0.013602765277028084,0.0559910349547863,0.9791858196258545,
110649,0.014609160833060741,0.035269595682621,1.0149122476577759,
110749,0.014868544414639473,0.02694310061633587,0.9962316155433655,
110849,-0.001548470463603735,0.030651194974780083,1.0263015031814575,
110949,0.008612588047981262,0.08876653015613556,0.9899559617042542,
111049,0.01930510811507702,0.022854570299386978,1.0010606050491333,
111149,-0.01074227225035429,-0.006597637198865414,1.0479013919830322,
111249,-0.029936175793409348,-0.02393167093396187,1.0587135553359985,
111349,0.0055360510013997555,0.06605231761932373,1.0252561569213867,
111449,0.007865161634981632,0.023344799876213074,0.9940794706344604,
111549,0.03080509975552559,0.026044055819511414,0.990777850151062,
111649,0.006855841726064682,0.04916812852025032,0.9810246825218201,
111749,0.016346149146556854,0.03427326679229736,0.9809569120407104,
111849,-0.017057431861758232,0.04189520701766014,0.9653702974319458,
111949,-0.003171741496771574,0.050197042524814606,0.9920116066932678,
112049,0.00221116840839386,0.06149689480662346,1.015607237815857,
112149,-0.0053756097331643105,0.036045778542757034,0.9768223762512207,
112249,-0.007314051501452923,-0.009764517657458782,0.9995965361595154,
112349,-0.004362775012850761,0.051511090248823166,0.9989137649536133,
112449,-0.011170410551130772,0.0301621463149786,0.9776613712310791,
112549,-0.012686858884990215,0.012196690775454044,1.0260688066482544,
112649,0.023791057989001274,0.03658367320895195,1.0045690536499023,
112749,-0.01905670389533043,0.0036960868164896965,1.0417742729187012,
112849,-0.019054686650633812,-0.0026252116076648235,1.0669916868209839,
112949,0.014665665104985237,0.04210253059864044,0.9804275631904602,
113049,0.010934612713754177,0.05347742885351181,0.9842302203178406,
113149,0.016245825216174126,0.06261929869651794,0.9877484440803528,
113249,0.01217118464410305,0.036698970943689346,0.9979345798492432,
113349,0.01571880467236042,0.03779873251914978,0.994889497756958,
113449,0.010335072875022888,0.005198832601308823,1.0101009607315063,
113549,0.002131636254489422,0.07076231390237808,0.9596019387245178,
113649,0.008525833487510681,0.02517053298652172,0.9919036626815796,
113749,0.0017187048215419054,0.022157151252031326,1.002304196357727,
113849,-0.017855007201433182,0.006625855341553688,0.9897857308387756,
113949,0.015296272933483124,0.04578077420592308,0.9824073910713196,
114049,-0.03015138767659664,0.006117591634392738,1.0328871011734009,
114149,0.011334545910358429,0.028333475813269615,0.9870762228965759,
114249,-0.01851041615009308,-0.02750200219452381,1.033564567565918,
114349,-0.03338787332177162,0.011185556650161743,1.0182619094848633,
114449,0.014053788967430592,0.08392493426799774,0.9777812361717224,
114549,0.001344521762803197,0.03158583119511604,0.9881150126457214,
114650,0.011198812164366245,0.08459632843732834,0.9694170355796814,
114749,0.0036174235865473747,0.051337987184524536,0.998690664768219,
114849,-0.011703443713486195,-0.007365106604993343,1.029434084892273,
114949,-0.00016295268142130226,0.020898617804050446,1.008920431137085,
115049,0.01787540130317211,0.0341242179274559,1.0130670070648193,
115149,0.002792083192616701,0.0023405668325722218,1.0171140432357788,
115249,0.0016517816111445427,0.016017189249396324,1.0280027389526367,
115349,0.009295392781496048,0.030939899384975433,1.0007938146591187,
115449,-0.001009979983791709,0.013592850416898727,0.9973058700561523,
115549,0.002016271697357297,-0.007529641967266798,1.0200926065444946,
115649,0.013598768971860409,0.028995981439948082,0.964410662651062,
115749,0.00561731169000268,0.011107678525149822,1.0188591480255127,
115849,-0.026390651240944862,-0.001753421500325203,0.999858021736145,
115949,-0.018086453899741173,0.011613271199166775,1.004543662071228,
116049,0.032678015530109406,0.03960966318845749,0.9834328889846802,
116149,0.009214727208018303,0.05058584362268448,0.9915352463722229,
116249,-0.013332913629710674,-0.0029523754492402077,1.043900728225708,
116349,-0.00875150691717863,0.05800558626651764,1.0200616121292114,
116449,-0.004514527041465044,0.0428684838116169,1.0261472463607788,
116549,0.013190722092986107,0.056328754872083664,0.9911746978759766,
116649,0.038347743451595306,0.08370315283536911,0.9942274689674377,
116749,0.017113063484430313,0.004145067650824785,0.9744608402252197,
116849,0.01389135979115963,0.05789089947938919,0.9967843890190125,
116949,-0.0019011945696547627,0.027706807479262352,0.9857204556465149,
117049,0.010741387493908405,0.04944746568799019,1.0084831714630127,
117149,0.017237290740013123,0.055963192135095596,0.9677402377128601,
117249,0.009231727570295334,0.03469184413552284,0.9927881360054016,
117349,0.009577407501637936,0.02629403956234455,1.0070931911468506,
117449,0.0014927388401702046,0.006145474500954151,1.0242646932601929,
117549,-0.0031043465714901686,0.04501659423112869,1.0251835584640503,
117649,-0.009184649214148521,0.032720811665058136,1.0158629417419434,
117749,-0.0016015226719900966,0.028385218232870102,1.0439139604568481,
117849,0.02348346635699272,0.03565764054656029,0.9870900511741638,
117949,0.006486076395958662,0.00897299312055111,1.0111706256866455,
118049,0.006677714642137289,0.009123185649514198,1.0015064477920532,
118149,-0.013483555056154728,0.031062999740242958,0.9782594442367554,
118249,-0.008000773377716541,-0.02481006644666195,1.0128780603408813,
118349,0.010087957605719566,0.005241545382887125,0.9964068531990051,
118449,0.023114530369639397,0.05216414853930473,0.9894447326660156,
118549,-0.0008967037429101765,0.01438933052122593,0.9915257096290588,
118649,4.0263003029394895e-05,0.016047468408942223,0.9942428469657898,
118749,-0.007109237834811211,-0.003690452314913273,0.9950791001319885,
118849,0.0028844804037362337,0.03173311799764633,0.9998381733894348,
118949,-0.006037476472556591,-0.017007384449243546,1.0158460140228271,
119049,0.0054875994101166725,0.01774304360151291,0.9907301068305969,
119149,-0.010180110111832619,-0.013934968039393425,1.0221965312957764,
119249,-0.014917789027094841,-0.019839519634842873,1.0383418798446655,
119349,-0.02291722781956196,-0.003503259038552642,1.0374727249145508,
119449,-0.007215979043394327,0.040524885058403015,0.9846603274345398,
119549,0.015728238970041275,0.05830719321966171,0.993610680103302,
119649,-0.013043173588812351,-0.03359290584921837,1.0236585140228271,
119749,0.00253068539313972,0.031576573848724365,0.9785130620002747,
119849,0.0007270071073435247,0.02114081382751465,1.0037593841552734,
119949,0.005782210733741522,0.06693090498447418,1.023483157157898,
120049,-0.019709482789039612,-0.002316314959898591,1.036463975906372,
120149,0.0015511647798120975,0.01909569837152958,0.9745725393295288,
120249,0.002094215014949441,-0.0039771548472344875,1.0207639932632446,
120349,-0.0033493523951619864,0.025829410180449486,1.0114362239837646,
120449,0.005372579209506512,0.009197413921356201,0.996748149394989,
120549,-0.02527502179145813,0.009928704239428043,0.9986433982849121,
120649,-0.00933893769979477,-0.007175703998655081,1.0107152462005615,
120749,-0.02060067281126976,0.027533939108252525,1.0250487327575684,
120849,0.0016654124483466148,0.02329402044415474,1.0031379461288452,
120949,-0.014529210515320301,0.026425572112202644,1.0016050338745117,
121050,0.03420550376176834,0.09115681797266006,0.9611658453941345,
121150,-0.011141758412122726,0.040535856038331985,1.011610984802246,
121249,0.008092052303254604,0.06589032709598541,1.017038106918335,
121349,0.011119455099105835,0.00848311185836792,1.0108375549316406,
121449,-0.01061975583434105,0.045052483677864075,0.9819362163543701,
121549,0.01309871207922697,0.07697568833827972,0.9688670635223389,
121649,-0.015156175009906292,0.06331291794776917,1.0027360916137695,
121749,0.020691772922873497,0.045392416417598724,0.9894325733184814,
121849,-0.026945674791932106,-0.00474362401291728,1.0342605113983154,
121949,-0.021837225183844566,0.01827153190970421,1.0737981796264648,
122049,-0.014211897738277912,0.0025257570669054985,1.012749195098877,
122149,-0.002917633391916752,0.020474467426538467,0.9612684845924377,
122249,-0.000307916576275602,0.023710407316684723,0.9954396486282349,
122349,-0.014718415215611458,0.01890849880874157,1.025567650794983,
122449,0.032331738620996475,0.0710233747959137,0.9872535467147827,
122549,0.0034117125906050205,0.03641338646411896,1.0103352069854736,
122649,0.009647414088249207,0.05660565197467804,0.9789886474609375,
122749,0.01634833589196205,0.02327396720647812,1.0431411266326904,
122849,-0.019266417250037193,0.03697924315929413,0.997828483581543,
122949,0.009745730087161064,0.08374327421188354,0.9621224999427795,
123049,-0.002527713542804122,0.005865748971700668,1.0142090320587158,
123149,0.008791688829660416,0.02893836237490177,1.0177721977233887,
123249,0.013802298344671726,0.042040735483169556,1.0134079456329346,
123349,0.003206617897376418,0.023139549419283867,1.0010759830474854,
123449,0.008506334386765957,0.035943884402513504,0.9949568510055542,
123549,0.00040316383820027113,0.07967401295900345,0.9502484798431396,
123649,0.010537441819906235,0.022492360323667526,1.0002669095993042,
123749,-0.005627172999083996,0.0028357398696243763,0.9824321866035461,
123849,0.049449604004621506,0.047990359365940094,0.9736111164093018,
123949,0.0030008740723133087,0.023362554609775543,0.983447253704071,
124049,0.005959115456789732,0.006906723603606224,1.0158562660217285,
124149,-0.03065359778702259,-0.008179557509720325,1.056281566619873,
124249,0.003659128211438656,0.027849111706018448,0.9974578619003296,
124349,-0.020701125264167786,-0.02336810529232025,1.0440503358840942,
124449,0.024188010022044182,0.07793846726417542,0.9861875176429749,
124549,0.0004787975631188601,0.017483942210674286,1.007900357246399,
124649,0.002281003165990114,0.013480347581207752,1.012151837348938,
124749,0.0003160305495839566,0.019973786547780037,1.0526677370071411,
124849,0.0076980749145150185,0.03795682266354561,0.9955054521560669,
124949,0.014379671774804592,0.02948080748319626,1.0580997467041016,
125049,-0.010953016579151154,-0.0034467403311282396,1.0370208024978638,
125149,0.012366289272904396,0.04160763695836067,0.9475991725921631,
125249,0.005614267662167549,0.010940402746200562,0.9924629926681519,
125349,0.0001310239895246923,0.024293525144457817,1.0164623260498047,
125449,-0.00786309503018856,0.02764226496219635,1.0131133794784546,
125549,0.005720985122025013,0.04075780138373375,0.9790759086608887,
125649,0.006302249617874622,0.0012221449287608266,0.9939097762107849,
125749,0.0001959824439836666,0.012872953899204731,1.0608149766921997,
125849,-0.005147622898221016,0.016851451247930527,0.9896323680877686,
125949,-0.01072309073060751,0.03314923122525215,1.0387160778045654,
126049,0.005217346828430891,-0.00307879108004272,1.003965973854065,
126149,0.02444913238286972,0.018791424110531807,1.0012511014938354,
126249,-0.004750935826450586,0.028794175013899803,0.9878928661346436,
126349,-0.004531562328338623,0.029970461502671242,1.0217962265014648,
126449,-0.01727556437253952,0.04207766056060791,1.0169651508331299,
126549,0.011331576853990555,0.04118212312459946,0.9851793646812439,
126649,-0.022931721061468124,0.042728718370199203,1.0216816663742065,
126749,0.009977583773434162,0.047729648649692535,0.9929877519607544,
126849,-0.0049866801127791405,0.023364895954728127,0.9708544611930847,
126949,0.002480000490322709,0.00877369660884142,1.0114997625350952,
127049,0.00283586117438972,0.03214690461754799,0.9716011881828308,
127149,-0.012069436721503735,3.698319778777659e-05,1.012426495552063,
127249,0.0003231613663956523,-0.027079369872808456,1.0295580625534058,
127349,0.023627260699868202,0.06279903650283813,0.9858688116073608,
127449,0.03027457557618618,0.07240672409534454,0.9662112593650818,
127549,0.0042661456391215324,0.011583606712520123,1.0190081596374512,
127649,-0.03250085189938545,0.0305196400731802,1.0204321146011353,
127749,0.016866886988282204,0.026810456067323685,0.9737169146537781,
127849,0.019978579133749008,-0.003954349085688591,0.9867157340049744,
127949,0.0056032100692391396,0.03695642575621605,0.9678540825843811,
128050,0.0054906392470002174,-0.002740119118243456,1.008849024772644,
128149,0.001547870459035039,0.013600115664303303,1.0100239515304565,
128249,-0.011285807006061077,0.027812063694000244,1.016043782234192,
128349,-0.012079735286533833,0.0061738272197544575,0.9952430129051208,
128449,0.01804199628531933,0.025420403108000755,0.9672194123268127,
128549,0.008285204879939556,0.03056412562727928,0.9769843220710754,
128649,-0.0036663166247308254,-0.013118340633809566,1.0207151174545288,
128749,-0.0075584957376122475,0.015815969556570053,1.0113202333450317,
128849,0.020775502547621727,0.05806411802768707,1.0002882480621338,
128949,-0.003000872442498803,0.024415329098701477,1.0184260606765747,
129049,0.016330765560269356,0.04013309255242348,0.9531716704368591,
129149,0.012982404790818691,0.0368027426302433,0.9878705143928528,
129249,-0.018505573272705078,0.006247437559068203,1.0367754697799683,
129349,0.00432690791785717,0.03492516651749611,0.9983619451522827,
129449,-0.01576858200132847,0.040591925382614136,0.9880168437957764,
129549,0.003749289084225893,0.020978640764951706,1.0380840301513672,
129649,0.0019513482693582773,0.025615457445383072,1.0090892314910889,
129749,0.0031894994899630547,-0.016425972804427147,1.0155779123306274,
129849,0.019398100674152374,0.07614842057228088,0.9850785136222839,
129949,0.04232971370220184,0.01144426129758358,0.9444056749343872,
130049,-0.013484974391758442,0.011021680198609829,1.0233463048934937,
130149,-0.004246260039508343,-0.005160284228622913,1.0225892066955566,
130249,-0.00036312395241111517,0.03865453600883484,1.051832675933838,
130349,-0.003292819019407034,0.011709591373801231,1.013917088508606,
130449,0.008056779392063618,-0.0023204036988317966,1.0087628364562988,
130549,0.01040524523705244,0.06157766282558441,0.9892994165420532,
130649,0.004252529237419367,0.05125277489423752,0.9777865409851074,
130749,0.012952018529176712,0.005614079535007477,0.9797677993774414,
130849,0.01466935034841299,0.05506212264299393,0.9652999639511108,
130949,-0.004890468902885914,0.039948977530002594,1.0063161849975586,
131049,0.003758456790819764,-0.002403099788352847,1.0253551006317139,
131149,-0.010539844632148743,0.016717854887247086,1.019606351852417,
131249,0.03389429301023483,0.058196403086185455,0.9906651973724365,
131349,0.007417683023959398,0.02492792345583439,0.9933806657791138,
131449,-0.019338129088282585,-0.004181606229394674,1.0415065288543701,
131549,0.017370326444506645,0.012803331948816776,1.0086698532104492,
131649,0.014860953204333782,0.02056092582643032,1.0170693397521973,
131749,0.0018021707655861974,0.055169668048620224,1.0139360427856445,
131849,-0.00450980756431818,0.09335155785083771,0.9903779029846191,
131949,0.027675308287143707,0.037980951368808746,1.005885362625122,
132049,0.014714417047798634,0.0104025574401021,1.004098653793335,
132149,-0.011181454174220562,0.030782319605350494,0.9879675507545471,
132249,-0.019800908863544464,0.012910347431898117,1.0094177722930908,
132349,0.0006555968429893255,0.031889814883470535,0.9730326533317566,
132449,-0.00915529578924179,0.033099256455898285,0.9821668267250061,
132549,0.012083153240382671,0.03204789757728577,0.9982022643089294,
132649,-0.008621596731245518,-0.011691574938595295,1.0287493467330933,
132749,-0.0021058148704469204,0.012152834795415401,1.0588593482971191,
132849,-0.00014842371456325054,0.032281771302223206,1.0257686376571655,
132949,0.009676364250481129,0.02859651856124401,0.9996236562728882,
133049,0.008875185623764992,0.009118432179093361,0.9989393353462219,
133149,-0.00768481707200408,0.015149100683629513,0.9952669143676758,
133249,0.020448705181479454,0.03090125322341919,0.9997889995574951,
133349,0.0039018909446895123,0.01574738882482052,1.0219792127609253,
133449,-0.0016020794864743948,0.04160067066550255,1.0251911878585815,
133549,-0.021849725395441055,-0.03678498417139053,1.0517305135726929,
133649,0.008860867470502853,0.0017896562349051237,1.017210841178894,
133749,0.011391159147024155,0.018904918804764748,1.0094902515411377,
133849,0.04381535202264786,0.04482129216194153,0.9630799889564514,
133949,0.022057928144931793,0.023730602115392685,1.018195390701294,
134049,-0.0030655330047011375,0.05483159422874451,1.0046629905700684,
134149,0.018073150888085365,0.02959706261754036,0.963939368724823,
134249,0.022641079500317574,0.003996187821030617,1.0371164083480835,
134349,-0.004187154117971659,0.05694764479994774,0.982118546962738,
134449,0.0035661906003952026,0.07648997753858566,0.977212131023407,
134550,0.023524485528469086,0.02363249473273754,0.9816226959228516,
134649,-0.00792095996439457,0.012420650571584702,1.021820068359375,
134749,-0.0011883225524798036,0.0009548450470902026,1.0064116716384888,
134849,-0.0063372147269546986,-0.01063358411192894,1.0265437364578247,
134949,0.0017902313265949488,0.039527527987957,1.0085676908493042,
135050,0.02263111062347889,0.05263986811041832,0.9920152425765991,
135150,-0.0013843359192833304,0.04026710242033005,1.0077698230743408,
135249,0.009568819776177406,-0.01685340702533722,1.017009973526001,
135349,-0.00042755072354339063,-0.00697854720056057,0.9963208436965942,
135449,0.010354039259254932,0.034931644797325134,0.9851704239845276,
135549,0.010870879516005516,0.024276254698634148,0.9886772036552429,
135649,-0.013555413112044334,-0.010490696877241135,1.0227389335632324,
135749,0.010626882314682007,0.004510898143053055,1.008941650390625,
135849,0.0033606814686208963,-0.02703228034079075,1.0036044120788574,
135949,0.023742541670799255,0.009013448841869831,1.0031065940856934,
136049,0.0025825013872236013,-0.013407031074166298,1.0427017211914062,
136149,0.021283909678459167,0.043201424181461334,0.9849168062210083,
136249,-0.00328686460852623,0.045639410614967346,0.9692448377609253,
136349,-0.006600999739021063,-0.0032047200947999954,1.014359474182129,
136449,0.007479300256818533,-0.01381155475974083,0.9924585819244385,
136549,0.003701901761814952,0.04491446539759636,1.0053004026412964,
136650,-0.011193090118467808,0.03636159747838974,0.9652888774871826,
136749,0.003502126317471266,0.029385847970843315,0.9570693373680115,
136849,0.00916641391813755,0.011049462482333183,1.019661784172058,
136949,0.009983564727008343,0.007595849689096212,1.0020829439163208,
137049,0.009860479272902012,-0.008043428882956505,0.9887850284576416,
137149,0.004279888700693846,0.026278072968125343,0.9559480547904968,
137249,0.01321351807564497,0.062245652079582214,0.9652138352394104,
137349,0.004010424483567476,0.07328502833843231,1.0044862031936646,
137449,0.003638687077909708,0.04310673475265503,0.9979792833328247,
137549,0.007007547188550234,0.040942851454019547,1.0163087844848633,
137649,0.023028556257486343,0.035564620047807693,0.9970382452011108,
137749,0.033208660781383514,0.04955640062689781,0.99559086561203,
137849,-0.011422117240726948,0.013034099712967873,1.0297056436538696,
137949,0.04143235459923744,0.042114850133657455,0.9277802109718323,
138049,-0.015186412259936333,0.03620218485593796,1.0169506072998047,
138149,0.004351734649389982,0.02171681448817253,1.0093679428100586,
138249,0.003872693981975317,0.045090027153491974,1.0231380462646484,
138349,0.023183373734354973,0.0417838953435421,0.97154301404953,
138449,0.017312007024884224,0.027220314368605614,0.9967036247253418,
138549,-0.003806436900049448,0.029760340228676796,0.992737889289856,
138649,0.02442619390785694,0.04660592973232269,1.0038954019546509,
138749,0.011552318930625916,0.062070973217487335,0.9619090557098389,
138849,0.007130112498998642,0.014821246266365051,1.0077930688858032,
138949,0.036365192383527756,0.04553902894258499,0.9718617796897888,
139049,-0.0024231949355453253,0.04333442077040672,0.9851453304290771,
139149,-0.013915831223130226,0.002154613146558404,0.9896730780601501,
139249,0.006085296627134085,0.02932857908308506,0.9949448704719543,
139349,0.00962634664028883,0.061028484255075455,0.9586538076400757,
139449,0.012112605385482311,0.02756486088037491,1.0132312774658203,
139549,0.02967328019440174,0.03948267921805382,0.9633247256278992,
139649,-0.010879977606236935,0.0879351943731308,1.0426127910614014,
139749,0.008013607934117317,0.0646573081612587,1.0178426504135132,
139849,-0.0033507344778627157,0.028467364609241486,1.0015013217926025,
139949,0.013537690043449402,0.03328772261738777,0.9906378984451294,
140049,0.03593285009264946,0.10369490832090378,0.9496527910232544,
140149,-0.0018983273766934872,-0.0006301691755652428,0.99073326587677,
140249,0.008279532194137573,0.029703311622142792,0.9652101993560791,
140349,-0.004462961107492447,-0.019757749512791634,1.041490912437439,
140449,0.012571998871862888,0.0303766131401062,0.9533414840698242,
140549,0.014657603576779366,-0.0007322005112655461,1.0214945077896118,
140649,-0.009754029102623463,0.030140405520796776,0.9906348586082458,
140749,-0.007610572502017021,0.02501179464161396,1.0351922512054443,
140849,-0.0007475190213881433,0.003837917000055313,1.0189025402069092,
140949,0.006737085059285164,0.047754671424627304,0.9530707597732544,
141049,-0.005602986551821232,0.014741698279976845,1.0081983804702759,
141149,-0.021427202969789505,-0.013383885845541954,1.0869550704956055,
141249,0.012137291952967644,0.05600587651133537,0.9860990643501282,
141349,-0.018338138237595558,-0.03226269409060478,1.0257518291473389,
141449,0.030796634033322334,0.0511489100754261,1.0009108781814575,
141549,0.003575725480914116,0.042117469012737274,1.0004990100860596,
141649,-0.0076563311740756035,0.03705299273133278,0.9818736910820007,
141749,0.007413698360323906,0.00996408611536026,1.012296199798584,
141849,0.003910375293344259,0.03253815695643425,1.0508091449737549,
141949,0.0021514836698770523,0.04155376926064491,1.0058079957962036,
142050,0.03434589505195618,0.039185456931591034,0.9359460473060608,
142149,-0.005624331068247557,0.021877704188227654,1.0148557424545288,
142249,0.002291223267093301,0.011038725264370441,0.9814944267272949,
142349,0.006089651025831699,0.041456326842308044,1.0089821815490723,
142449,-0.005584823898971081,0.010465151630342007,1.0128393173217773,
142549,0.06636938452720642,0.05352279543876648,0.9846860766410828,
142650,0.0036855407524853945,0.01114627718925476,1.0365304946899414,
142749,-0.01436805073171854,0.035134874284267426,1.0110642910003662,
142849,-0.010020202957093716,-0.000717520946636796,0.9987388253211975,
142949,0.02479652687907219,0.030225085094571114,0.9628841876983643,
143049,0.005692999344319105,0.05242151767015457,0.9557926058769226,
143149,0.01447316538542509,0.04085700958967209,0.9525679349899292,
143249,0.01442764326930046,0.0877055898308754,1.0008538961410522,
143349,0.002181597985327244,0.03328477963805199,0.9804341197013855,
143449,-0.0012078745057806373,0.0454825758934021,1.0011768341064453,
143549,-0.0032054216135293245,0.02380187250673771,0.9893248677253723,
143649,0.0011377485934644938,-0.004473492968827486,1.0547997951507568,
143749,0.012133469805121422,0.024814819917082787,0.9600743651390076,
143849,-0.003085106611251831,0.0020893155597150326,1.0305758714675903,
143949,0.020258704200387,0.04298161715269089,0.9840583801269531,
144049,0.020304957404732704,0.05170260742306709,0.9625688195228577,
144149,-0.005821545608341694,-0.002298973500728607,1.0123518705368042,
144249,-0.004035866819322109,0.02858564630150795,1.0277475118637085,
144349,0.0034880146849900484,0.0002754974120762199,1.017959713935852,
144449,0.00859860796481371,0.020555421710014343,0.9968116283416748,
144549,0.004326400347054005,0.01217396929860115,1.0628758668899536,
144649,0.020459195598959923,0.0478130578994751,0.9751995205879211,
144749,0.005476915277540684,0.030393129214644432,1.0021685361862183,
144849,-0.015346230007708073,0.041162487119436264,1.0233502388000488,
144949,-0.013630436733365059,-0.03549343720078468,1.045264482498169,
145049,0.056505944579839706,0.05312934145331383,0.9520955085754395,
145149,0.010038732551038265,0.018713733181357384,0.967149555683136,
145249,0.003410705830901861,0.024371691048145294,1.0034760236740112,
145349,-0.00202547712251544,0.04238079860806465,0.9922692179679871,
145449,0.010746411047875881,0.02205457165837288,0.974782407283783,
145549,0.013577140867710114,0.07388192415237427,1.017441987991333,
145649,-0.0026946235448122025,0.03240491449832916,1.0002716779708862,
145749,-0.008229912258684635,0.017219122499227524,1.0050528049468994,
145849,0.005167374387383461,0.027691982686519623,1.0095748901367188,
145949,-0.012047416530549526,0.005177352577447891,1.013785719871521,
146049,0.0012454844545572996,0.0748574510216713,1.013917088508606,
146149,0.030319107696413994,0.06686504185199738,0.9701201915740967,
146249,0.025145020335912704,0.05078786984086037,0.9796423316001892,
146349,-0.0075861625373363495,-0.0044541931711137295,0.9631395936012268,
146449,0.025426020845770836,0.024278342723846436,0.9972317218780518,
146549,-0.01802917942404747,4.739201904158108e-05,1.0433355569839478,
146649,0.012846644967794418,0.028571903705596924,1.0265944004058838,
146749,0.027776869013905525,0.12476253509521484,0.9294006824493408,
146849,-0.006416100077331066,0.0193944089114666,1.0278542041778564,
146949,0.016627134755253792,0.03137212619185448,0.9891477823257446,
147049,0.012800534255802631,0.06702442467212677,1.0026527643203735,
147149,0.015898331999778748,0.03384430333971977,1.001429796218872,
147249,0.004643017891794443,0.03971661254763603,0.9913397431373596,
147349,0.0004473055014386773,0.0033966577611863613,1.0105050802230835,
147449,0.020228801295161247,0.010554978623986244,0.9752175807952881,
147549,-0.001658266526646912,0.0002923366264440119,0.9969083070755005,
147649,0.002276430372148752,0.006481790449470282,1.0043723583221436,
147749,-0.002407561056315899,0.014103448949754238,1.027471899986267,
147849,-0.002411431400105357,0.018592936918139458,1.0255680084228516,
147949,0.00782758742570877,-0.006042025052011013,1.0241763591766357,
148049,0.010321308858692646,0.019131062552332878,1.0042610168457031,
148149,-0.00660600746050477,0.012735412456095219,1.0246832370758057,
148249,0.018074803054332733,0.052825361490249634,0.9652355909347534,
148349,-0.009684288874268532,0.04583553224802017,0.9923040270805359,
148449,0.00934440828859806,0.022575192153453827,1.023962378501892,
148549,0.0010132541647180915,0.01801176369190216,0.9971282482147217,
148649,0.011884093284606934,0.03463861346244812,0.9809001684188843,
148749,-0.01641230285167694,-0.03425197675824165,1.0425336360931396,
148849,0.03684088587760925,0.03810963034629822,0.9711843132972717,
148950,0.008169854059815407,0.04720056429505348,1.0307291746139526,
149050,-0.0006332523189485073,0.005019609350711107,0.9953743815422058,
149150,0.01889183185994625,0.026315683498978615,0.9498046040534973,
149249,-0.0002674493007361889,0.010714301839470863,0.988088846206665,
149349,0.010323449969291687,0.010872391052544117,1.0057843923568726,
149449,0.0015523795736953616,0.016032880172133446,1.0169038772583008,
149549,-0.00614204490557313,0.04905528947710991,1.02927565574646,
149649,-0.0009125320939347148,0.04883398488163948,0.9769319891929626,
149749,0.02738027274608612,-0.012794986367225647,1.0243237018585205,
149849,0.00510189775377512,0.07116346806287766,1.0266050100326538,
149949,-0.0019800204318016768,0.026898153126239777,0.9681802988052368,
150049,0.006341016851365566,0.057163529098033905,0.9944275617599487,
150149,0.00288815307430923,0.0308128222823143,1.0117689371109009,
150249,-0.025294223800301552,-0.013508034870028496,1.0454463958740234,
150349,0.009096348658204079,0.06103714928030968,0.9839106202125549,
150449,0.008112184703350067,0.014260144904255867,1.0070419311523438,
150549,0.03684082627296448,0.00420057587325573,1.044714331626892,
150649,-0.0009237674530595541,0.08000302314758301,0.9840632081031799,
150749,-0.0052044810727238655,0.036822397261857986,1.0225927829742432,
150849,-0.003117038868367672,0.0013051875866949558,0.9841810464859009,
150949,0.0013697299873456359,0.03897231072187424,0.9836274981498718,
151049,0.010590831749141216,0.0030445822048932314,1.0408257246017456,
151149,-0.009947681799530983,0.04982292279601097,0.9935226440429688,
151249,-0.013513077981770039,-0.04355207830667496,1.0280981063842773,
151349,-0.0001743202010402456,0.0394081175327301,0.9541646838188171,
151449,0.01131780818104744,0.007511438336223364,0.9880625009536743,
151549,0.020541159436106682,0.004237053450196981,0.9885345101356506,
151649,-0.0177230816334486,-0.010644383728504181,1.019156575202942,
151749,0.012398223392665386,0.026465971022844315,1.0317556858062744,
151849,0.0013226121664047241,0.03624649718403816,1.0280660390853882,
151949,0.005989632569253445,0.03768225386738777,1.0126959085464478,
152049,-0.004259299021214247,-0.01937226578593254,1.0347046852111816,
152149,0.01755269058048725,0.005547491367906332,0.9806228280067444,
152249,0.009683119133114815,0.044373948127031326,0.9938103556632996,
152349,0.025631766766309738,0.046798136085271835,0.9715594053268433,
152449,0.02492847852408886,0.0637848973274231,0.9682666659355164,
152549,0.009977810084819794,0.054082226008176804,0.986199676990509,
152649,0.011058108881115913,0.08528709411621094,0.9855523109436035,
152749,0.011526686139404774,0.024480577558279037,0.9881899952888489,
152849,-0.005365767050534487,0.014529851265251637,1.0215322971343994,
152949,-0.02706281468272209,-0.01853802800178528,1.0645006895065308,
153049,0.016158701851963997,0.06089642643928528,1.0120854377746582,
153149,0.007047551218420267,0.04469488188624382,1.0037438869476318,
153249,0.044034454971551895,0.04027162119746208,1.0177956819534302,
153349,0.01524126436561346,0.028470145538449287,0.978345513343811,
153449,-0.0038018219638615847,0.01478468906134367,0.984142541885376,
153549,-0.0016145848203450441,-0.011460869573056698,1.0222684144973755,
153649,-0.02211138606071472,0.015457159839570522,1.0162492990493774,
153749,0.002282845787703991,0.03297847881913185,1.034952998161316,
153849,0.012460654601454735,0.043191198259592056,1.0485402345657349,
153949,0.0036306024994701147,0.015348565764725208,0.970933735370636,
154049,0.0033597967121750116,0.07512205839157104,0.9895336031913757,
154149,0.04020514711737633,0.05383004993200302,0.9353891015052795,
154249,0.013102326542139053,0.05019577592611313,0.9878936409950256,
154349,0.0031752963550388813,0.016799502074718475,1.0183486938476562,
154449,-0.009355084039270878,-0.021780718117952347,1.0053642988204956,
154549,0.005322945304214954,0.0249954704195261,0.9965194463729858,
154649,0.005820286925882101,0.008032765239477158,1.0287519693374634,
154749,-0.0019364106701686978,0.004547071643173695,1.0357900857925415,
154849,-0.015929849818348885,0.05702986568212509,0.999392032623291,
154949,0.01584099791944027,0.02479221113026142,1.0038615465164185,
155049,0.004749899730086327,0.002501647686585784,1.0043781995773315,
155149,0.0128096928820014,0.01681465283036232,1.0197832584381104,
155249,0.017313901335000992,0.010024217888712883,1.0003275871276855,
155349,-0.0009902312885969877,-0.013318212702870369,1.023897409439087,
155449,0.010865728370845318,0.019547514617443085,0.9605731964111328,
155549,0.012170985341072083,0.01652143895626068,1.024359941482544,
155649,0.021110909059643745,0.02436012588441372,0.9577274918556213,
155749,0.03176866099238396,0.039005789905786514,0.9477135539054871,
155849,0.01026963908225298,0.029329076409339905,0.9627386927604675,
155949,0.012563211843371391,0.008699075318872929,0.9828275442123413,
156049,-0.0027749554719775915,-0.014790483750402927,1.004672884941101,
156149,0.013759537599980831,0.041090622544288635,0.9927173852920532,
156249,-0.007768671028316021,-0.0018339050002396107,1.0282694101333618,
156349,-0.0005933190695941448,0.027198120951652527,1.0297996997833252,
156449,-0.014011659659445286,-0.017265306785702705,1.0225591659545898,
156549,0.0013769209617748857,0.03862620145082474,1.0180164575576782,
156649,-0.0028912746347486973,-0.0049474528059363365,1.0407744646072388,
156749,-0.0003879713185597211,0.03697129338979721,0.9735773205757141,
156849,-0.01832137629389763,0.07612738013267517,1.0056434869766235,
156949,0.005143170710653067,0.00399002805352211,0.9699965715408325,
157049,0.0028513611759990454,0.028689607977867126,1.0094660520553589,
157149,0.00813809409737587,0.02068350464105606,1.0391775369644165,
157249,-0.012026100419461727,0.020572375506162643,0.99957674741745,
157349,0.020562632009387016,0.06068135425448418,0.9907839298248291,
157449,-0.0018790641333907843,0.02627437375485897,1.0021917819976807,
157549,0.015211126767098904,0.07757823169231415,1.0028575658798218,
157649,-0.010067072696983814,0.004373347386717796,1.0178133249282837,
157749,-0.005205825436860323,0.04316949099302292,0.9887686967849731,
157849,0.008468015119433403,0.04968131333589554,0.9955936074256897,
157949,-0.005447832867503166,-0.008901029825210571,1.006450891494751,
158049,0.026239702478051186,0.06289973855018616,0.96607905626297,
158149,0.003015476278960705,0.058706872165203094,1.0407648086547852,
158249,-0.0003831000649370253,0.030102809891104698,1.0079151391983032,
158349,0.0071921879425644875,0.0043116784654557705,1.0447168350219727,
158449,0.014201008714735508,0.03785880655050278,0.9815083742141724,
158549,-0.0076682232320308685,0.025867320597171783,0.9952337145805359,
158649,0.01752454787492752,0.024400798603892326,0.9441983103752136,
158749,-0.004395295865833759,0.04013264551758766,1.0434876680374146,
158849,0.00934465229511261,0.019749050959944725,0.9631496071815491,
158949,0.016589872539043427,0.012141848914325237,1.0313029289245605,
159049,0.029832255095243454,0.03767583519220352,0.9946821928024292,
159149,-0.021053919568657875,-0.00220947596244514,1.0265270471572876,
159249,0.018957674503326416,0.06458864361047745,0.9986701011657715,
159349,-0.021594509482383728,-0.016638178378343582,0.9830465316772461,
159450,-0.0019350486109033227,-0.002496808534488082,1.0186518430709839,
159549,-0.000979689066298306,0.05955341458320618,0.9931955337524414,
159649,-0.001413733116351068,0.019320443272590637,1.0277550220489502,
159749,-0.013193486258387566,0.047414764761924744,0.9603317379951477,
159849,0.00803649052977562,0.05601322650909424,0.9889307618141174,
159949,0.013200913555920124,0.02433483861386776,0.9839376211166382,
160049,-0.011892706155776978,0.02833823300898075,1.0058784484863281,
160149,0.012651820667088032,0.03131960704922676,0.9520054459571838,
160249,0.0013560275547206402,0.01910468190908432,0.9985215067863464,
160349,0.008014246821403503,0.046799492090940475,0.9968500733375549,
160449,-0.0081046586856246,-6.038753781467676e-05,1.0119669437408447,
160549,-0.006214627530425787,0.030790215358138084,1.0137065649032593,
160649,0.0044214255176484585,0.004895949736237526,0.9926629066467285,
160749,0.0065040141344070435,-0.006830822676420212,1.0024436712265015,
160849,0.022612636908888817,0.029693711549043655,0.9913811683654785,
160949,0.0005707175587303936,-0.004543638322502375,0.9857818484306335,
161049,0.028358090668916702,0.034390632063150406,0.9862136840820312,
161149,-0.004119026008993387,0.013025605119764805,1.010328769683838,
161249,0.006834732368588448,0.05121356248855591,1.0012778043746948,
161349,0.028080938383936882,0.05306795611977577,1.0043623447418213,
161449,-0.0002518985711503774,0.031009357422590256,1.0022941827774048,
161549,-0.0009319607634097338,-0.003074526321142912,1.0228993892669678,
161649,0.01208551973104477,0.05086011067032814,0.9827545881271362,
161749,0.03783693537116051,0.031648192554712296,0.9736320376396179,
161849,-0.002629289636388421,0.033040158450603485,1.0083377361297607,
161949,-0.003627802012488246,0.014327947981655598,1.0208992958068848,
162049,0.006476270500570536,0.02678593248128891,0.9702835083007812,
162149,0.00047911418369039893,0.01828096993267536,0.9949324131011963,
162249,0.038245122879743576,0.02038257196545601,1.0163273811340332,
162349,-0.007320263423025608,0.0014190549263730645,1.0526623725891113,
162449,0.03356334939599037,0.05845325440168381,0.9528627991676331,
162549,0.011266735382378101,0.02636268548667431,1.0044466257095337,
162649,-0.007855662144720554,0.02149457298219204,0.9861787557601929,
162749,0.006717607844620943,0.09264756739139557,0.9651967883110046,
162850,0.02678641863167286,0.02104802429676056,0.9823938608169556,
162950,0.019976897165179253,0.022639118134975433,1.0139498710632324,
163049,0.007472943514585495,0.010894646868109703,1.0509246587753296,
163149,0.01523827575147152,0.07226439565420151,0.9519743323326111,
163249,0.02378164418041706,0.009858574718236923,1.0066418647766113,
163349,0.0036750223953276873,-0.02571488358080387,1.0196468830108643,
163449,-0.0019142980454489589,0.0164946336299181,1.007388949394226,
163549,-0.011240189895033836,0.00465015321969986,1.0019919872283936,
163649,0.0003585445520002395,0.024874484166502953,0.9855992197990417,
163749,-0.0013818297302350402,-0.003674274543300271,1.0066032409667969,
163849,0.010330666787922382,0.021669767796993256,0.9364545941352844,
163949,0.0047783562913537025,0.019068943336606026,1.0051531791687012,
164049,-0.0022612642496824265,0.07321644574403763,0.9841479063034058,
164149,-0.008816327899694443,0.057723063975572586,1.0124739408493042,
164249,-0.02269408479332924,-0.008689197711646557,1.0010223388671875,
164349,0.015754740685224533,0.024347977712750435,1.033995509147644,
164449,0.004630505107343197,0.03884796425700188,1.0075361728668213,
164549,0.01733309216797352,0.021833114326000214,0.9929478168487549,
164649,0.00173419329803437,0.05487658455967903,0.9968194961547852,
164749,-0.0037949602119624615,-0.006368029396981001,1.0559401512145996,
164849,-0.003217922756448388,0.003026795806363225,1.0185045003890991,
164949,-0.01840948686003685,-0.01666405238211155,1.0351917743682861,
165049,0.013332081958651543,0.030754515901207924,0.9981967210769653,
165149,-0.006528293713927269,0.023750247433781624,0.9939712882041931,
165249,0.021427862346172333,0.02494552731513977,0.9805284738540649,
165349,0.006738728377968073,0.059234898537397385,0.9580888152122498,
165449,0.039169445633888245,0.02893948182463646,1.0424062013626099,
165549,-0.01575152948498726,-0.03385906293988228,1.0414382219314575,
165649,-0.011302155442535877,-0.04467529058456421,1.0584442615509033,
165749,-0.0021680535282939672,-0.0032350749243050814,0.9808217287063599,
165849,0.012794021517038345,0.036745790392160416,0.9898837208747864,
165949,0.009510131552815437,0.07698711007833481,0.9768158197402954,
166049,-0.022703999653458595,-0.014780561439692974,0.9946101307868958,
166149,0.0018072827951982617,0.026619302108883858,0.9689589142799377,
166249,0.0227020476013422,0.010441800579428673,1.0189920663833618,
166349,-0.01528477855026722,0.023169545456767082,1.0193073749542236,
166449,-0.0008912862394936383,0.00661824643611908,0.9880117774009705,
166549,0.03753288462758064,0.014750132337212563,1.0110844373703003,
166649,-0.007512674201279879,0.03552769497036934,1.0265212059020996,
166749,-0.004778520204126835,0.011979426257312298,1.004586100578308,
166849,-0.004188945982605219,0.035790108144283295,1.0232502222061157,
166949,-0.0006783109274692833,0.05352696031332016,1.0088413953781128,
167049,0.03303993120789528,0.02948760613799095,0.9892992377281189,
167149,0.008474173955619335,0.016836751252412796,0.9790787100791931,
167249,-0.00045802677050232887,-0.03132450580596924,1.044411540031433,
167349,0.017798878252506256,0.001972806639969349,0.9905960559844971,
167449,0.03445553407073021,0.027077505365014076,0.9350466728210449,
167549,-0.022063475102186203,-0.024610932916402817,1.080511450767517,
167649,0.06778769940137863,0.07494945079088211,0.9423249959945679,
167749,0.0034063952043652534,0.0565236397087574,0.9829280376434326,
167849,-0.009871653281152248,0.0254028532654047,0.9956311583518982,
167949,-0.0019480546470731497,0.02196773700416088,1.000065803527832,
168049,-0.020663941279053688,0.03959030658006668,1.0134252309799194,
168149,-0.010429811663925648,0.006641985382884741,0.9575119018554688,
168249,0.026672277599573135,0.09725010395050049,0.9736334085464478,
168349,-0.016162140294909477,0.007802694570273161,1.0147918462753296,
168449,-0.013098723255097866,0.019443867728114128,0.9784085154533386,
168549,-0.005109909921884537,0.028832728043198586,1.0303417444229126,
168649,0.00038559193490073085,-0.001998812658712268,1.0556153059005737,
168750,-0.02501019462943077,-0.037099648267030716,1.0932685136795044,
168849,-0.019866881892085075,0.03271687775850296,0.9567283987998962,
168949,0.009871338494122028,0.009550563991069794,1.0361402034759521,
169049,-0.014163235202431679,-0.031186236068606377,1.0153297185897827,
169149,0.008775806054472923,0.04331356659531593,0.996222198009491,
169249,0.004568487871438265,0.009832876734435558,1.0194569826126099,
169349,-0.0031976159662008286,0.04538321495056152,1.002948522567749,
169449,0.013436932116746902,0.06322791427373886,0.976050615310669,
169549,-0.0035317305009812117,0.015357467345893383,1.0256773233413696,
169649,0.009918213821947575,0.032135847955942154,1.0532891750335693,
169749,0.01633629761636257,0.014395210891962051,1.0352180004119873,
169849,-0.014214505441486835,-0.007188066840171814,0.9831053018569946,
169949,-0.014369823038578033,0.03492819145321846,0.9702687859535217,
170049,-0.014885918237268925,-0.005379850510507822,1.033322811126709,
170149,0.018734972923994064,0.03261745721101761,0.9756389856338501,
170249,0.006015107501298189,0.011874028481543064,0.9903833866119385,
170349,-0.008819225244224072,0.021145470440387726,1.0359838008880615,
170450,-0.010515724308788776,-0.03775710612535477,1.0202399492263794,
170549,0.008752080611884594,0.006618896499276161,1.0110564231872559,
170649,-0.02475428208708763,-0.010144997388124466,0.9927030205726624,
170749,0.025844339281320572,-0.005843824706971645,0.9978278279304504,
170849,-0.0069244070909917355,-0.004186886362731457,0.9979385137557983,
170949,-0.007494132500141859,0.04504387453198433,0.993019700050354,
171049,0.010574530810117722,0.02540680021047592,1.016541600227356,
171149,0.000551244243979454,0.0001071056685759686,0.9987973570823669,
171249,0.013722219504415989,0.026247385889291763,0.9831616282463074,
171349,0.01755630224943161,0.04278632253408432,1.0367481708526611,
171449,0.005055938847362995,0.04437589272856712,0.998005747795105,
171549,-0.001589519320987165,0.03959423676133156,1.0257964134216309,
171649,0.007628454826772213,0.03705054521560669,0.9863649606704712,
171749,0.010409872978925705,0.019587282091379166,1.0069164037704468,
171849,0.009085571393370628,0.03945312276482582,0.9993928074836731,
171949,-0.01696128584444523,-0.0006985479267314076,1.0130654573440552,
172049,0.033449165523052216,0.06366705894470215,0.9595519304275513,
172149,-0.0058744968846440315,-0.0018527681240811944,1.0307865142822266,
172249,0.01337478682398796,0.032363731414079666,0.9824807643890381,
172349,0.008320996537804604,-0.016445759683847427,1.0185014009475708,
172449,0.001614270848222077,0.017301511019468307,0.9908524751663208,
172549,0.02211681567132473,0.00851155910640955,1.0009409189224243,
172649,-0.009804225526750088,0.02868242748081684,1.0090205669403076,
172749,0.005097154062241316,-0.008291022852063179,0.9663914442062378,
172849,0.011603446677327156,-0.01739814132452011,1.0281236171722412,
172949,0.004687896464020014,0.04388308897614479,0.9842305183410645,
173049,0.04837462306022644,0.038892824202775955,0.9827548861503601,
173149,0.015644336119294167,0.020359978079795837,1.0151798725128174,
173249,0.0005370761500671506,-0.021952131763100624,1.0158635377883911,
173349,0.026322603225708008,0.01869405247271061,0.977713406085968,
173449,-0.004039205610752106,-0.005486856214702129,1.0136545896530151,
173549,-3.338773603900336e-05,0.019586337730288506,1.0031988620758057,
173649,0.016321243718266487,0.04506440833210945,0.9828205108642578,
173749,-0.0030144609045237303,0.033231183886528015,0.972628653049469,
173849,0.007222483865916729,0.02853565476834774,0.9882972836494446,
173949,-0.003820492886006832,-0.00296051730401814,0.9861831068992615,
174049,-0.013297175988554955,-0.010305441915988922,1.0239344835281372,
174149,0.011539359577000141,0.010441280901432037,1.026781439781189,
174249,-0.020167892798781395,-0.009454311802983284,1.0369144678115845,
174349,-0.026370739564299583,-0.045037705451250076,1.0657377243041992,
174449,0.00825163722038269,0.014195065014064312,1.0137921571731567,
174549,-0.005299082957208157,0.025630615651607513,0.9880161881446838,
174649,0.005453214515000582,0.011685390956699848,0.9826244711875916,
174749,-0.011309294030070305,-0.002409429056569934,1.0034140348434448,
174849,-0.014541632495820522,-0.02405947633087635,1.0577888488769531,
174949,-0.010954913683235645,0.0006777730886824429,1.007496953010559,
175049,-0.003572448156774044,0.009354240261018276,1.0001084804534912,
175149,-0.0003950851387344301,0.05339498817920685,0.990119993686676,
175249,-0.017191700637340546,-0.022268489003181458,1.026939868927002,
175349,0.0006201974465511739,0.011165518313646317,0.9853448271751404,
175449,0.02915192022919655,0.024278081953525543,1.0171575546264648,
175549,0.021510927006602287,0.028325961902737617,1.0015039443969727,
175649,0.004248997196555138,0.012193870730698109,0.9963553547859192,
175749,-0.005700381472706795,0.022216327488422394,0.9995914101600647,
175849,0.000769494567066431,0.007520429790019989,0.9835136532783508,
175949,-0.00382824894040823,0.04073186591267586,0.9694488048553467,
176049,-0.013369262218475342,0.022799259051680565,1.054046392440796,
176149,0.001206899294629693,0.07479999214410782,1.0027159452438354,
176249,0.015837928280234337,0.00012585589138325304,1.0075949430465698,
176349,0.0021716305054724216,0.005625749472528696,1.0206961631774902,
176449,-0.005235904362052679,0.05486632138490677,0.9827705025672913,
176549,-0.011738024652004242,0.02697323076426983,1.0133308172225952,
176650,-2.331822906853631e-05,0.01757497899234295,1.0201600790023804,
176749,0.046041566878557205,0.017510797828435898,0.9700844883918762,
176849,-0.011791303753852844,0.03362536057829857,0.9826644659042358,
176949,-0.022775443270802498,-0.0024207094684243202,1.0137169361114502,
177049,-0.0002546167524997145,0.06224498897790909,0.9784913659095764,
177149,-0.0015590396942570806,-0.0071030971594154835,1.018455147743225,
177249,-0.0026923019904643297,0.011622963473200798,1.000329852104187,
177349,0.021136227995157242,0.026208221912384033,0.9916487336158752,
177449,0.016253702342510223,0.031390655785799026,1.0097813606262207,
177549,0.009359498508274555,0.008271769620478153,1.009548544883728,
177649,0.002432708628475666,0.01211423147469759,1.0314661264419556,
177749,0.01438080333173275,0.004011163953691721,1.0018872022628784,
177849,0.01749436929821968,0.04033245891332626,0.9860449433326721,
177949,0.02894616313278675,0.03277689591050148,0.9647669792175293,
178049,-0.013502728193998337,-0.003491068724542856,1.0249874591827393,
178149,0.005377341061830521,0.004536575172096491,1.0109065771102905,
178249,-0.004080153536051512,0.012498490512371063,1.047877550125122,
178349,-0.004782251548022032,0.04567785933613777,1.003749132156372,
178449,0.01271797064691782,0.031969767063856125,1.0254089832305908,
178549,0.005348500330001116,0.02646402083337307,1.0347614288330078,
178649,0.03076891042292118,0.12171051651239395,0.9413877725601196,
178749,-0.008490392006933689,-0.0218824315816164,1.0407941341400146,
178849,0.0023803606163710356,0.019157135859131813,0.9893996119499207,
178949,0.01754501648247242,0.03271040320396423,1.0032535791397095,
179049,0.011621218174695969,0.024059021845459938,1.010358452796936,
179149,0.00973525084555149,0.05011402815580368,1.0126413106918335,
179249,-0.006194877438247204,-0.011645853519439697,1.0108569860458374,
179349,-0.0337379015982151,-0.016590585932135582,1.0269560813903809,
179449,0.0017461520619690418,0.02993583120405674,1.0016249418258667,
179549,0.012949667870998383,0.042160775512456894,1.0047175884246826,
179649,0.010703576728701591,-0.0031303667929023504,1.0165636539459229,
179749,-0.005167644005268812,-0.023285333067178726,1.054205060005188,
179849,0.0021544652990996838,0.01776343211531639,0.9829198122024536,
179949,-0.0005860246601514518,0.02061925269663334,0.9893784523010254,
180049,-0.011328584514558315,-0.021881183609366417,1.065614938735962,
180149,-0.017063429579138756,-0.03200891613960266,1.0480265617370605,
180249,0.017745807766914368,0.03166693076491356,0.9666849970817566,
180349,0.028378354385495186,0.01648377627134323,0.9796898365020752,
180449,0.003851786721497774,0.015371195040643215,1.0294047594070435,
180549,0.01650574617087841,0.02697857655584812,1.0505245923995972,
180649,-0.00017178116831928492,0.027000147849321365,1.0271121263504028,
180749,-0.0066636670380830765,0.04073646292090416,0.994376003742218,
180849,-0.0029592306818813086,0.04704958200454712,1.0122689008712769,
180949,0.01716996356844902,0.01881697028875351,0.9670490026473999,
181049,0.024388600140810013,0.01388484612107277,1.0170449018478394,
181149,-0.007696528919041157,0.009795920923352242,1.0428448915481567,
181249,0.006247128825634718,-0.02523290365934372,1.0193586349487305,
181349,0.008028370328247547,-0.014886993914842606,0.9955926537513733,
181449,-0.002572510624304414,0.05329320579767227,0.9729165434837341,
181549,0.0056685530580580235,0.04028068855404854,1.0056498050689697,
181649,0.004640719387680292,-0.010827717371284962,1.0423766374588013,
181749,0.01340792141854763,0.039615776389837265,1.0144795179367065,
181849,-0.025361834093928337,-0.036179397255182266,1.0156598091125488,
181949,-0.009763840585947037,-0.016463307663798332,0.994493305683136,
182049,-0.026442868635058403,-0.008498778566718102,1.0433564186096191,
182149,-0.0016774957766756415,-0.03868474066257477,1.0681179761886597,
182249,0.016279425472021103,0.01055579911917448,1.018186092376709,
182349,-0.006578883621841669,-0.026698926463723183,1.0667352676391602,
182449,0.0015494165709242225,0.015188055112957954,1.0070092678070068,
182549,0.012372258119285107,0.024375004693865776,1.0513837337493896,
182649,0.0013774207327514887,-0.0027517422568053007,1.038588285446167,
182749,0.01479287538677454,0.03818519040942192,0.9606214165687561,
182849,-0.020649170503020287,-0.034924209117889404,1.079645037651062,
182949,0.008997166529297829,0.008839620277285576,0.9980921149253845,
183049,-0.021317588165402412,0.024840494617819786,0.9824177622795105,
183149,0.016774067655205727,-0.00361209106631577,0.9931504726409912,
183249,0.007622955832630396,-0.010386236943304539,1.0071598291397095,
183349,0.008330149576067924,-0.017594926059246063,1.0008201599121094,
183449,-0.012475918047130108,0.007597123738378286,1.0386030673980713,
183549,-0.005560667719691992,0.02006019838154316,1.0067116022109985,
183649,0.015156256034970284,-0.00829470343887806,1.0010310411453247,
183749,0.010718084871768951,0.037952035665512085,0.983303427696228,
183849,0.008120635524392128,0.029200829565525055,1.0271414518356323,
183949,0.026269910857081413,0.01591411605477333,0.9981197118759155,
184049,0.030324740335345268,0.01280300784856081,1.0175284147262573,
184149,-0.0003235794429201633,0.01840972527861595,0.9752830862998962,
184250,0.006294318940490484,0.011639099568128586,0.9960575699806213,
184349,0.005892428569495678,0.04463176056742668,0.9553860425949097,
184449,0.0029384479857981205,0.019641723483800888,0.9939451217651367,
184549,0.016534671187400818,0.025910744443535805,1.009756088256836,
184649,0.01373509131371975,0.001797266537323594,1.0022573471069336,
184749,0.023213040083646774,0.009271174669265747,1.006560206413269,
184849,0.004492708016186953,0.0055951764807105064,1.0109548568725586,
184949,7.496456237277016e-05,0.027451712638139725,0.974626898765564,
185049,0.01647758297622204,0.04875783994793892,0.9682108759880066,
185149,0.025006059557199478,0.0678744837641716,0.9827721118927002,
185249,0.012648846954107285,0.03840233385562897,0.9927042126655579,
185349,0.001708282041363418,0.04298894479870796,0.9899523854255676,
185449,-0.0007519294158555567,0.012557880021631718,1.0027300119400024,
185549,0.02258632890880108,0.01787862554192543,1.0052493810653687,
185649,0.005736379884183407,0.04439045861363411,0.9702267050743103,
185749,0.016624746844172478,0.00580113660544157,0.9711605906486511,
185849,-0.0029152908828109503,0.02688683196902275,0.9818150997161865,
185949,0.004376064520329237,0.03911753371357918,0.9804492592811584,
186049,0.01427336223423481,0.01722542569041252,0.9968411326408386,
186149,0.00476074917241931,0.025203626602888107,0.9618434309959412,
186249,-0.016887685284018517,-0.029493482783436775,1.0261415243148804,
186349,0.013520659878849983,0.08314003795385361,0.986809253692627,
186449,-0.004102940671145916,0.02628924511373043,1.0355644226074219,
186549,0.0015125899808481336,0.04286077991127968,0.9924314022064209,
186649,0.01185708586126566,0.022235289216041565,1.0007374286651611,
186749,0.00914568267762661,0.014968226663768291,0.9755076169967651,
186849,0.009666173718869686,-0.010049077682197094,1.0600649118423462,
186949,0.020010121166706085,0.04106089472770691,1.006545066833496,
187049,0.0017501638503745198,0.042060162872076035,0.9784618020057678,
187149,-0.013020060025155544,-0.012257562950253487,1.0046111345291138,
187249,-0.008421001955866814,-0.012305149808526039,1.0255831480026245,
187349,0.01303514838218689,0.007256762590259314,0.9755423665046692,
187449,0.0024974115658551455,-0.0051907747983932495,1.0163148641586304,
187549,-0.011442658491432667,0.030583743005990982,0.9955459237098694,
187649,0.018075786530971527,0.004449720494449139,0.9961090087890625,
187749,0.013824550434947014,0.013420640490949154,1.0281232595443726,
187849,-0.0018300082301720977,0.025953426957130432,0.9912791848182678,
187949,0.0002619119477458298,0.004241890739649534,0.9986748695373535,
188049,0.0081178592517972,0.01229771412909031,1.0020092725753784,
188149,0.007071098778396845,0.006049826741218567,0.975029706954956,
188249,-0.00879193376749754,-0.028305213898420334,1.0008271932601929,
188349,-0.011317563243210316,0.03888325393199921,1.0022813081741333,
188449,0.020571250468492508,0.033345431089401245,1.0000855922698975,
188549,0.0009552761912345886,0.025678006932139397,0.9896918535232544,
188649,0.00030128564685583115,-0.01818043552339077,1.0151302814483643,
188749,0.006802575197070837,0.026104431599378586,0.9725858569145203,
188849,0.008901866152882576,0.012932219542562962,1.0069913864135742,
188949,0.016390187665820122,0.03428943455219269,0.996248185634613,
189049,-0.0009549185633659363,-0.0015912384260445833,1.0137107372283936,
189149,-0.01583459973335266,0.020473694428801537,1.0156817436218262,
189249,-0.01746325008571148,0.03480377420783043,1.0407836437225342,
189349,-0.013449537567794323,-0.014053436927497387,1.0093952417373657,
189449,0.045235972851514816,0.049355462193489075,0.9552417397499084,
189549,0.010423392057418823,0.03695157915353775,0.9840242266654968,
189649,-0.004420134238898754,0.019104406237602234,0.9981457591056824,
189749,0.009744265116751194,0.026823444291949272,1.004486083984375,
189849,0.0013660050462931395,0.024725865572690964,0.9727774262428284,
189949,-0.002816207706928253,0.005235020536929369,1.0185056924819946,
190049,0.01615859568119049,0.01841755025088787,0.9900118708610535,
190149,0.001456412603147328,0.04744300991296768,0.996621310710907,
190249,-0.02339118905365467,0.022284001111984253,1.026667833328247,
190349,0.013818790204823017,0.0001367320801364258,1.011474609375,
190449,0.030479207634925842,0.017177937552332878,0.9674469232559204,
190550,-0.009717030450701714,0.02724497951567173,1.0030092000961304,
190649,0.004110188689082861,0.01921100914478302,0.9937487840652466,
190749,0.0006197263137437403,0.023500991985201836,0.9926792979240417,
190849,-0.005094203632324934,0.05691269040107727,1.022844910621643,
190949,0.015004517510533333,0.05797477811574936,0.9544762372970581,
191049,0.034811604768037796,0.03898060321807861,0.9749393463134766,
191149,0.017001325264573097,0.04370913654565811,1.0066357851028442,
191249,0.03424125164747238,0.06597047299146652,1.019854187965393,
191349,-0.020354023203253746,-0.02109540067613125,1.030930757522583,
191449,0.01881353370845318,0.047904882580041885,1.0168191194534302,
191549,0.02704906091094017,0.054378196597099304,0.977217972278595,
191649,0.010260580107569695,0.03332098573446274,1.045926809310913,
191749,0.007735657971352339,0.036348629742860794,1.0144039392471313,
191849,0.013210993260145187,0.0658695176243782,0.9964533448219299,
191949,0.008151240646839142,0.05520452931523323,0.9701337814331055,
192049,0.005972900427877903,0.03675723075866699,0.9698381423950195,
192149,-0.0017525022849440575,0.010204790160059929,0.9903688430786133,
192249,-0.001397724263370037,-0.0005112051730975509,1.004446029663086,
192349,0.003765643574297428,0.03862154483795166,1.009780764579773,
192449,0.00537052983418107,0.0460837185382843,0.9957393407821655,
192549,0.004416486714035273,0.041408296674489975,0.9775176048278809,
192649,-0.007677513640373945,5.2424598834477365e-05,0.9996317625045776,
192749,-0.0021864348091185093,0.0319739505648613,0.9777207970619202,
192849,0.009545913897454739,0.0063376715406775475,0.9701116681098938,
192949,-0.0048608663491904736,0.0071747493930161,1.0115145444869995,
193049,0.0040876660495996475,0.016892772167921066,1.038924217224121,
193149,0.00029131013434380293,0.023297103121876717,0.9980883598327637,
193249,-0.0007688123732805252,-0.007664603181183338,1.009982943534851,
193349,-0.0023678895086050034,0.037506673485040665,1.0275715589523315,
193449,0.014354128390550613,0.08919385820627213,0.9622536301612854,
193549,0.006689783651381731,0.008692160248756409,0.998650074005127,
193649,0.014598405919969082,0.060679346323013306,0.9837712645530701,
193749,0.013565336354076862,0.04440142586827278,0.9597981572151184,
193849,0.017094703391194344,0.09255726635456085,0.9904825091362,
193949,0.0012413464719429612,0.02960287779569626,1.0450485944747925,
194049,0.03290499001741409,0.040947504341602325,1.0359971523284912,
194149,0.002611117670312524,0.04880906641483307,1.0079610347747803,
194249,0.0058646490797400475,0.027262922376394272,1.018389344215393,
194349,0.007567955646663904,0.0164034441113472,0.9791162014007568,
194449,-0.021070772781968117,0.043131884187459946,1.033902645111084,
194549,-0.003365139476954937,0.04443715885281563,0.9951370358467102,
194649,0.03344882279634476,0.05547957122325897,0.9244047999382019,
194749,-0.005554389674216509,0.026467392221093178,1.000456690788269,
194849,0.008250861428678036,-0.007830574177205563,1.0979764461517334,
194949,-0.00892531219869852,-0.011796418577432632,1.0355151891708374,
195049,0.018908102065324783,0.08228819072246552,0.9840366244316101,
195149,-0.0001959763903869316,0.026056960225105286,0.9717814922332764,
195249,0.002102064434438944,0.028442248702049255,0.9814875721931458,
195349,-0.0038364760112017393,0.0008352243457920849,0.9481896162033081,
195449,0.0019718974363058805,0.08910693973302841,0.9981550574302673,
195549,-0.019477272406220436,0.03479979187250137,1.0141549110412598,
195649,-0.009784831665456295,-0.03991513326764107,1.043060541152954,
195749,-0.017681455239653587,-0.0164896659553051,1.0233592987060547,
195849,0.009553520940244198,0.013835434801876545,1.0008381605148315,
195949,-0.0021071387454867363,0.058620668947696686,1.0252690315246582,
196049,0.015553302131593227,-0.009654037654399872,1.028253197669983,
196150,0.014417111873626709,0.017560303211212158,1.0638551712036133,
196249,0.00663063395768404,0.02467445842921734,1.007653832435608,
196349,0.017245901748538017,0.017796985805034637,1.0037190914154053,
196449,0.007676188368350267,0.041167937219142914,0.9978175163269043,
196549,0.0022869897074997425,0.0107166338711977,0.9860265851020813,
196649,-0.0003592653083615005,0.03427695110440254,0.9629788398742676,
196749,0.0014042753027752042,0.07734744995832443,0.9890626668930054,
196849,0.020571976900100708,0.005445701070129871,0.9618198871612549,
196949,0.0019823466427624226,0.05403326079249382,0.9599167108535767,
197049,-0.0013164913980290294,-0.05120783671736717,1.017648458480835,
197149,-0.007084234151989222,0.036740921437740326,1.0016275644302368,
197249,0.02128966525197029,0.02936757355928421,0.9765660762786865,
197350,0.001440534950233996,0.0111472737044096,0.9756069183349609,
197449,0.003935566172003746,0.05912993848323822,1.0055359601974487,
197549,-0.019909797236323357,0.0485340915620327,0.9684928059577942,
197649,0.003421082394197583,0.08446021378040314,1.014907956123352,
197749,0.009862094186246395,0.008405986241996288,1.0383418798446655,
197849,-0.008038602769374847,0.035135287791490555,0.9886678457260132,
197949,0.001997258746996522,0.02148623950779438,0.9931188225746155,
198049,0.0036180124152451754,0.053644366562366486,0.9920488595962524,
198149,0.010246564634144306,0.022338276728987694,1.013237476348877,
198249,-0.017415914684534073,0.008739672601222992,1.0245616436004639,
198349,0.04813827946782112,-0.009927723556756973,0.9948992729187012,
198449,0.01123816054314375,0.10528529435396194,1.0298357009887695,
198549,-0.0034701144322752953,-0.013577639125287533,1.0431444644927979,
198649,-0.014097285456955433,0.04480910673737526,0.997685968875885,
198749,0.0027769587468355894,0.08998402953147888,1.0045404434204102,
198849,0.010632669553160667,0.023386089131236076,1.0015528202056885,
198949,-0.009470618329942226,0.07067202776670456,0.9855201244354248,
199049,-0.004636167548596859,0.0095248157158494,0.9815607070922852,
199149,-0.006925428751856089,0.028709886595606804,0.9879274368286133,
199249,-0.0024621563497930765,0.024340936914086342,0.9884734749794006,
199349,0.011546645313501358,0.0033721935469657183,1.0170527696609497,
199449,0.03683456778526306,0.027946384623646736,0.9741775393486023,
199549,0.013965291902422905,0.01706622913479805,0.9461467266082764,
199649,0.013397003524005413,0.00276192300952971,1.0050827264785767,
199749,-0.012438951060175896,0.0020611868239939213,1.0150623321533203,
199849,-0.004503440577536821,0.008830942213535309,1.0130187273025513,
199949,0.016642408445477486,0.030346466228365898,0.9928292632102966,
200049,0.02554519847035408,0.032074086368083954,0.9510549306869507,
200149,0.0012181196361780167,0.0018412042409181595,1.0757032632827759,
200249,-0.0035319835878908634,0.07586754858493805,0.9745535254478455,
200349,-0.0037573715671896935,0.014329429715871811,0.9994643330574036,
200449,0.030585508793592453,0.022806642577052116,1.008239507675171,
200549,0.022746993228793144,0.031002886593341827,1.0039125680923462,
200649,0.010694770142436028,0.01767158694565296,0.9987984299659729,
200749,0.00757685536518693,0.024678878486156464,1.0109984874725342,
200849,0.022195087745785713,0.10327210277318954,0.9667725563049316,
200949,0.00743950204923749,0.01707535795867443,1.0242544412612915,
201049,-0.00043311543413437903,0.023662716150283813,1.0071525573730469,
201149,-0.0004948925343342125,0.048668380826711655,0.9996667504310608,
201249,0.01260673813521862,0.024879181757569313,0.9966920614242554,
201349,-0.05003039538860321,-0.051410041749477386,1.0887067317962646,
201449,-0.0014226415660232306,0.008040574379265308,1.0453492403030396,
201549,0.011443113908171654,0.05817769840359688,1.026679277420044,
201649,0.0014407916460186243,0.041265033185482025,0.9716445803642273,
201749,-0.008293001912534237,0.003614502726122737,1.0266878604888916,
201849,0.004115902818739414,0.056500162929296494,0.9516414403915405,
201949,-0.019884200766682625,-0.02727981097996235,1.0190937519073486,
202049,0.015183103270828724,-0.008074815385043621,0.9839630722999573,
202149,-0.005507306661456823,0.007492701057344675,1.0203226804733276,
202249,0.01685132086277008,0.06263608485460281,0.9688692092895508,
202349,0.015083939768373966,0.08015529811382294,0.9795882701873779,
202449,-0.014802983961999416,-0.030760226771235466,1.0183874368667603,
202549,-0.021058568730950356,-0.028165675699710846,1.0275532007217407,
202649,-0.012343631125986576,-0.023667380213737488,1.034866452217102,
202749,-0.015118492767214775,0.04923669993877411,1.0042145252227783,
202849,0.027688853442668915,0.01862943172454834,1.0233712196350098,
202949,-0.0011454084888100624,0.05717400461435318,0.9799116849899292,
203049,0.002739519812166691,0.05673714727163315,0.9618378281593323,
203149,0.02754298411309719,0.043127499520778656,0.9876067638397217,
203249,0.024298449978232384,0.052549559623003006,0.9870074987411499,
203349,0.012579410336911678,0.06056208163499832,0.9595735669136047,
203449,0.015354563482105732,0.03485698625445366,1.0162429809570312,
203549,-0.012818804942071438,-0.002340119332075119,0.9731792211532593,
203649,0.012404815293848515,0.0024993782863020897,1.0554182529449463,
203749,0.007063711993396282,0.03088931366801262,1.0109213590621948,
203849,0.040060799568891525,0.034710247069597244,0.9751584529876709,
203949,0.030186202377080917,0.031144706532359123,0.9974442720413208,
204049,-0.004167493432760239,-0.0054160612635314465,1.0480811595916748,
204149,0.009217947721481323,-0.011641527526080608,1.0462654829025269,
204250,0.02593104913830757,0.024680359289050102,1.0030111074447632,
204350,-0.0031470749527215958,-0.01324287336319685,1.030664086341858,
204449,-0.01293550617992878,0.027065996080636978,1.0011274814605713,
204549,-0.0005973283550702035,-0.013641062192618847,1.0288722515106201,
204649,0.034547410905361176,0.04338826984167099,0.9383174777030945,
204749,0.032383959740400314,0.06378950923681259,0.9677064418792725,
204849,0.033653419464826584,0.050368063151836395,0.9618353247642517,
204949,1.7312308045802638e-05,0.005920921452343464,1.0180485248565674,
205049,0.015619744546711445,0.0483257919549942,0.9618518948554993,
205149,-0.006335514597594738,0.0275323037058115,1.0149741172790527,
205249,-0.007509708870202303,0.020690210163593292,1.0754624605178833,
205349,-0.033869195729494095,-0.004495764616876841,1.067829966545105,
205449,0.024133408442139626,0.010740978643298149,1.034078598022461,
205549,-0.009712227620184422,0.010665424168109894,1.000497579574585,
205649,-0.0015488576609641314,0.06388154625892639,1.025679349899292,
205749,0.00499401381239295,0.033483412116765976,1.0609166622161865,
205849,-0.004622177220880985,0.002932510804384947,1.0155539512634277,
205949,0.03972422331571579,0.06368677318096161,0.9454490542411804,
206049,0.028691861778497696,0.07384959608316422,0.993984580039978,
206149,0.014249713160097599,0.13014647364616394,1.003110408782959,
206249,0.01053700316697359,0.025189191102981567,0.9897941946983337,
206349,0.010565255768597126,0.025441473349928856,0.9978952407836914,
206449,0.013613165356218815,0.041241325438022614,0.9770598411560059,
206549,0.02055276371538639,0.01148681528866291,1.0199644565582275,
