time,acc.x,acc.y,acc.z,
13180,-0.010006600990891457,0.0022929655387997627,0.9985097646713257,
13190,-0.006461269687861204,0.0017722152406349778,1.0001344680786133,
13200,-0.006640671286731958,0.001502696075476706,1.0000847578048706,
13210,-0.009426341392099857,0.0011527916649356484,1.00284743309021,
13220,-0.010336166247725487,0.004589634481817484,1.0024852752685547,
13230,-0.011479112319648266,0.0036151634994894266,1.0009201765060425,
13240,-0.010150241665542126,0.002032229444012046,0.9991556406021118,
13250,-0.0077203609980642796,0.0027080103754997253,0.9998224377632141,
13260,-0.007656075060367584,0.0015520683955401182,1.0003986358642578,
13270,-0.008182541467249393,0.0018332423642277718,0.9994540214538574,
13280,-0.00992412120103836,0.003395375097170472,0.9984914064407349,
13290,-0.009059230796992779,0.002117227064445615,0.9966362714767456,
13300,-0.007634432520717382,0.0030752569437026978,0.999409019947052,
13310,-0.008809298276901245,0.0026773593854159117,1.0005015134811401,
13320,-0.007677539251744747,0.003843097249045968,0.9996692538261414,
13330,-0.008048947900533676,0.0026094908826053143,0.9980288147926331,
13340,-0.007321467157453299,0.0007639416144229472,0.9979978203773499,
13350,-0.008241092786192894,0.0034397300332784653,1.0003323554992676,
13360,-0.00844341330230236,0.0023207012563943863,0.9996047616004944,
13370,-0.010156866163015366,0.0014676213031634688,1.0005242824554443,
13380,-0.007749425247311592,0.001212138682603836,0.999184250831604,
13390,-0.009669640101492405,0.0031189080327749252,0.9983150362968445,
13400,-0.00888710469007492,0.004899386782199144,1.000022292137146,
13410,-0.009827135130763054,0.0023156078532338142,1.0006173849105835,
13420,-0.010640297085046768,0.00222861859947443,0.9984845519065857,
13430,-0.009350135922431946,0.004107947926968336,0.9998642802238464,
13440,-0.009771053679287434,0.0018098319415003061,0.998275876045227,
13450,-0.01076242234557867,0.0016530262073501945,1.000937819480896,
13460,-0.009264262393116951,0.0022678549867123365,1.0009963512420654,
13470,-0.010743163526058197,0.0008497564704157412,0.9983674883842468,
13480,-0.00936789158731699,0.0009635576861910522,0.9982852935791016,
13490,-0.010154306888580322,0.002848762786015868,0.9992890357971191,
13500,-0.01099460944533348,0.0022036051377654076,1.0001002550125122,
13510,-0.009686102159321308,0.0008875402272678912,1.0016742944717407,
13520,-0.0097831841558218,0.0014958225656300783,0.9999926090240479,
13530,-0.009249440394341946,0.0018189011607319117,0.9996617436408997,
13540,-0.009784935973584652,0.0030170243699103594,1.0012876987457275,
13550,-0.011399936862289906,0.0032237397972494364,1.0002037286758423,
13560,-0.009922349825501442,0.002914851764217019,1.0010521411895752,
13570,-0.010161587968468666,0.0010408895323053002,1.0006290674209595,
13580,-0.00889851339161396,0.0012922787573188543,0.9981422424316406,
13590,-0.008459576405584812,0.0019335148390382528,0.9991106986999512,
13600,-0.007506005931645632,0.0006131384870968759,1.0009275674819946,
13610,-0.010437171906232834,0.0019287137547507882,0.9993887543678284,
13620,-0.010554674081504345,0.0033231114502996206,1.0009381771087646,
13630,-0.009301092475652695,0.002330589108169079,1.000666856765747,
13640,-0.00961056537926197,0.003476144513115287,0.9979838728904724,
13650,-0.009977130219340324,0.0041248067282140255,0.9989445805549622,
13660,-0.011749153956770897,0.0017238229047507048,0.9990701675415039,
13670,-0.009115627035498619,0.0013338120188564062,0.9982311129570007,
13680,-0.00872679054737091,0.002052976982668042,0.9975907206535339,
13690,-0.008678336627781391,0.0041066561825573444,0.9986233115196228,
13700,-0.007782575208693743,0.004361618310213089,1.0001267194747925,
13710,-0.008896335028111935,0.002040515188127756,0.9996564984321594,
13720,-0.00906754843890667,0.0005162241868674755,0.999351441860199,
13730,-0.009464750066399574,0.0005846342537552118,1.0007295608520508,
13740,-0.009130292572081089,0.0001914750027935952,1.000354528427124,
13750,-0.010958371683955193,0.0013245053123682737,1.0006334781646729,
13760,-0.01065518707036972,0.002006423193961382,1.0003360509872437,
13770,-0.009662853553891182,0.0032977373339235783,0.9990557432174683,
13780,-0.007989535108208656,0.0011169943027198315,0.9992281794548035,
13790,-0.008778054267168045,0.002190331229940057,0.9996234178543091,
13800,-0.009366941638290882,0.002847520401701331,0.9986885786056519,
13810,-0.009300398640334606,0.002196758519858122,0.9982078075408936,
13820,-0.009355327114462852,0.002441913355141878,1.000220537185669,
13830,-0.010233643464744091,0.0008538221591152251,0.999836266040802,
13840,-0.010314185172319412,0.0004667082685045898,0.9984400272369385,
13850,-0.009831930510699749,0.003174645360559225,0.9989598393440247,
13860,-0.009016708470880985,0.0017306909430772066,1.0013622045516968,
13870,-0.008506976068019867,0.0019364140462130308,1.00009286403656,
13880,-0.009946618229150772,0.003182578831911087,0.9990279078483582,
13890,-0.009280839003622532,0.0035713796969503164,1.0002037286758423,
13900,-0.009190293960273266,0.001882480806671083,0.9999071359634399,
13910,-0.007767708506435156,0.0011846412671729922,0.9991557598114014,
13920,-0.00802059005945921,0.002122163772583008,0.9983233213424683,
13930,-0.007935893721878529,0.0023677104618400335,0.9992806315422058,
13940,-0.009610973298549652,0.004987573716789484,0.9995154738426208,
13950,-0.007705172523856163,0.001704418915323913,1.0016485452651978,
13960,-0.0085550332441926,0.00030684255762025714,0.999546468257904,
13970,-0.008389731869101524,0.0015535663114860654,0.9996097087860107,
13980,-0.00842804554849863,0.0017958995886147022,0.9990222454071045,
13990,-0.007962776347994804,-0.000262906716670841,1.0006417036056519,
14000,-0.009131001308560371,0.00199069338850677,0.9990944266319275,
14010,-0.01150337141007185,0.0032576494850218296,0.9985448718070984,
14020,-0.0124376704916358,0.0034268072340637445,0.9985311031341553,
14030,-0.011463465169072151,0.00160806137137115,1.0002360343933105,
14040,-0.010028709657490253,0.0026736583095043898,0.99954754114151,
14050,-0.010085261426866055,0.002476937836036086,1.0000654458999634,
14060,-0.01022398378700018,0.0014525522710755467,1.0001212358474731,
14070,-0.010247335769236088,0.005056698340922594,1.0019474029541016,
14080,-0.00896501075476408,0.0019325920147821307,0.9990040063858032,
14090,-0.009801862761378288,0.0007423338829539716,0.9988625049591064,
14100,-0.009984615258872509,0.0012776623480021954,0.9986903667449951,
14110,-0.009636575356125832,0.001933022402226925,1.001176357269287,
14120,-0.009448738768696785,0.0024599877651780844,1.0008400678634644,
14130,-0.010252426378428936,0.00282502849586308,0.9982227683067322,
14140,-0.010346085764467716,0.003671641694381833,0.9970492720603943,
14150,-0.011578697711229324,0.0037066603545099497,0.997829020023346,
14160,-0.011772137135267258,0.0015391095075756311,1.0017112493515015,
14170,-0.010763674043118954,0.0011451122118160129,1.0000290870666504,
14180,-0.009228653274476528,-0.0006427302141673863,0.9987255334854126,
14190,-0.008206280879676342,0.001247362233698368,0.9990453124046326,
14200,-0.008979336358606815,-8.939672989072278e-05,0.9994558095932007,
14210,-0.00784839317202568,0.0015598019817844033,0.9991462826728821,
14220,-0.007492892909795046,0.0025689832400530577,0.9996360540390015,
14230,-0.009200898930430412,0.0018984791822731495,0.9991850256919861,
14240,-0.008845432661473751,0.0022775186225771904,0.9995013475418091,
14250,-0.007247014436870813,0.0010764783946797252,1.0005899667739868,
14260,-0.007237460929900408,0.00031297520035877824,0.9993886351585388,
14270,-0.005305392201989889,0.0028597437776625156,0.9981903433799744,
14280,-0.010254737921059132,0.002789356978610158,0.9994304180145264,
14290,-0.008107823319733143,0.003210170892998576,0.9978446364402771,
14300,-0.00667501101270318,0.002750703599303961,0.9983623027801514,
14310,-0.00849853828549385,0.0024881174322217703,0.9980310797691345,
14320,-0.008898332715034485,0.0034125621896237135,0.9985525608062744,
14330,-0.008542267605662346,0.0026173696387559175,1.0012067556381226,
14340,-0.009101618081331253,0.0009753338526934385,0.9992733597755432,
14350,-0.009403853677213192,0.0019452564883977175,0.9989319443702698,
14360,-0.01079902146011591,0.00282558286562562,0.9992146492004395,
14370,-0.010334216989576817,0.0027091107331216335,0.9985441565513611,
14380,-0.009103944525122643,0.0005608453648164868,0.9999608397483826,
14390,-0.009545739740133286,0.0008572503575123847,1.000490665435791,
14400,-0.009465739130973816,0.0027447203174233437,1.0002391338348389,
14410,-0.007825689390301704,0.0019000605680048466,1.0001832246780396,
14420,-0.008041758090257645,0.0028436772990971804,0.9996394515037537,
14430,-0.009827756322920322,0.0017600341234356165,0.9989835619926453,
14440,-0.010702892206609249,0.0007080312934704125,1.000187635421753,
14450,-0.010497521609067917,0.0012023410527035594,1.0011827945709229,
14460,-0.009234017692506313,0.0023929106537252665,1.0001647472381592,
14470,-0.011087136343121529,0.00251276814378798,1.0012575387954712,
14480,-0.0104674706235528,0.003519649151712656,1.0011125802993774,
14490,-0.009288270957767963,0.002834093989804387,1.0003196001052856,
14500,-0.009287839755415916,0.004591304808855057,0.9999521970748901,
14510,-0.009515850804746151,0.0027199750766158104,0.998870849609375,
14520,-0.01071713212877512,0.0010047157993540168,1.000779390335083,
14530,-0.008680121973156929,0.0023263143375515938,1.0000249147415161,
14540,-0.008381862193346024,0.0031136320903897285,0.9993283748626709,
14550,-0.009842131286859512,0.0023377942852675915,1.0006592273712158,
14560,-0.009538593702018261,0.0034195627085864544,1.000364065170288,
14570,-0.011325336992740631,0.0029451395384967327,0.9993062019348145,
14580,-0.009395057335495949,0.0014668195508420467,0.9984204769134521,
14590,-0.009513498283922672,0.0029185626190155745,0.9981295466423035,
14600,-0.010267346166074276,0.0018067198107019067,1.0000425577163696,
14610,-0.009364040568470955,0.0025822201278060675,1.0000008344650269,
14620,-0.008977917954325676,0.0026832041330635548,1.0008888244628906,
14630,-0.010606244206428528,0.0034137184266000986,1.0009576082229614,
14640,-0.01181752048432827,0.00320413033477962,1.0002564191818237,
14650,-0.010302305221557617,0.0011002116370946169,0.999108076095581,
14660,-0.00958078633993864,0.001664376468397677,0.999154269695282,
14670,-0.008683050982654095,0.004828187171369791,0.9997411370277405,
14680,-0.010799240320920944,0.004799680318683386,0.9994655847549438,
14690,-0.01029298361390829,0.001534804585389793,0.9988278746604919,
14700,-0.010175277478992939,0.0015321727842092514,0.998828113079071,
14710,-0.010058392770588398,0.0014510098844766617,0.999380350112915,
14720,-0.01052069291472435,0.0024419103283435106,1.0001517534255981,
14730,-0.009561501443386078,0.003299002069979906,0.9989833235740662,
14740,-0.010999294929206371,0.0031750902999192476,0.99773108959198,
14750,-0.009730524383485317,0.002194447675719857,0.999116837978363,
14760,-0.007177161984145641,0.0021818990353494883,1.0000627040863037,
14770,-0.007076659239828587,0.0014258187729865313,0.9990158677101135,
14780,-0.007827738299965858,0.003879806026816368,0.999737024307251,
14790,-0.00755940331146121,0.003953369800001383,0.9992122054100037,
14800,-0.008441697806119919,0.0018407973693683743,0.9997480511665344,
14810,-0.010027822107076645,-0.00011464641283964738,1.002457857131958,
14820,-0.008013901300728321,0.00246137916110456,1.0030795335769653,
14830,-0.008706570602953434,0.0011933243367820978,1.000649094581604,
14840,-0.008831488899886608,0.0034954254515469074,1.000224232673645,
14850,-0.010002846829593182,0.0019232239574193954,0.9978774785995483,
14860,-0.010273491032421589,0.0024832477793097496,0.9996234178543091,
14870,-0.009554794058203697,0.003886267077177763,1.0002481937408447,
14880,-0.00890679657459259,0.004657313227653503,0.9997650384902954,
14890,-0.009328276850283146,0.004134433809667826,1.0010281801223755,
14900,-0.011362452991306782,0.004614575766026974,1.001645565032959,
14910,-0.010799936018884182,0.0046410225331783295,0.9998712539672852,
14920,-0.009019059129059315,0.0019194275373592973,0.9993327856063843,
14930,-0.010907197371125221,0.0017515718936920166,1.0000437498092651,
14940,-0.008030280470848083,0.001970588695257902,0.9993856549263,
14950,-0.008095617406070232,0.0019369997316971421,0.9978814721107483,
14960,-0.010123191401362419,0.00195629452355206,0.9989926815032959,
14970,-0.00861726887524128,0.003754524514079094,0.9997636079788208,
14980,-0.00931976456195116,0.0016813548281788826,1.000016212463379,
14990,-0.009136302396655083,0.0009188313269987702,0.9995591640472412,
15000,-0.009678457863628864,0.0031430881936103106,0.999652087688446,
15010,-0.008274607360363007,0.0031772435177117586,0.9986767768859863,
15020,-0.006980969104915857,0.003499783808365464,1.0005788803100586,
15030,-0.009873012080788612,0.0020157427061349154,1.001335859298706,
15040,-0.009815939702093601,0.00405314564704895,0.9996214509010315,
15050,-0.010323435999453068,0.004987281747162342,0.9985867142677307,
15060,-0.011152466759085655,0.0038722262252122164,0.9983580112457275,
15070,-0.009193019941449165,0.0023474509362131357,0.9999337196350098,
15080,-0.009239224717020988,0.0029479071963578463,0.9988602995872498,
15090,-0.00802372395992279,0.0030043311417102814,0.9986137747764587,
15100,-0.010239006951451302,0.003559948643669486,0.9997541904449463,
15110,-0.010586969554424286,0.0039554438553750515,1.0007325410842896,
15120,-0.009454905055463314,0.0023090788163244724,1.0018763542175293,
15130,-0.010167263448238373,0.003015062538906932,0.9990849494934082,
15140,-0.00783960148692131,0.003335159970447421,0.9990350604057312,
15150,-0.009396462701261044,0.0034700962714850903,1.00018310546875,
15160,-0.009649278596043587,0.00034752205829136074,0.9994460344314575,
15170,-0.012355147860944271,0.0014912367332726717,0.9992973208427429,
15180,-0.012967447750270367,0.0017652498790994287,0.9994229674339294,
15190,-0.010284069925546646,0.003360994625836611,1.0000972747802734,
15200,-0.009206309914588928,0.0010538400383666158,1.0003552436828613,
15210,-0.008851530030369759,0.0017099791439250112,0.9990274906158447,
15220,-0.010265197604894638,0.003245859406888485,0.9995023608207703,
15230,-0.011435030028223991,0.0042450581677258015,0.9992831349372864,
15240,-0.010793150402605534,0.0028232592158019543,1.000653624534607,
15250,-0.010587851516902447,0.0026105493307113647,1.0001789331436157,
15260,-0.010066034272313118,0.0037098724860697985,0.9998311400413513,
15270,-0.009054885245859623,0.002475562272593379,0.9999198317527771,
15280,-0.009791280142962933,0.0016763478051871061,1.001814603805542,
15290,-0.011400008574128151,0.0029872634913772345,1.0004791021347046,
15300,-0.008796541020274162,0.0026048077270388603,1.0001829862594604,
15310,-0.009108380414545536,0.0036130244843661785,0.9993775486946106,
15320,-0.009734725579619408,0.0022666361182928085,1.000331163406372,
15330,-0.00872728880494833,0.0027436204254627228,0.9990566968917847,
15340,-0.007921065203845501,0.0026552772615104914,0.9969840049743652,
15350,-0.0086050508543849,0.0018989566015079618,0.9976111054420471,
15360,-0.010274386964738369,0.002873428398743272,1.000787377357483,
15370,-0.009883311577141285,0.003279704600572586,0.999011754989624,
15380,-0.010330962017178535,0.0031796484254300594,1.0007917881011963,
15390,-0.009814411401748657,0.000801116693764925,1.0021693706512451,
15400,-0.009925750084221363,0.0024335493799299,0.9999216794967651,
15410,-0.00763551564887166,0.002615799894556403,0.9990640878677368,
15420,-0.008472115732729435,0.002896997146308422,0.9974196553230286,
15430,-0.007596361450850964,0.002071537310257554,0.9961398243904114,
15440,-0.008513223379850388,0.0034849909134209156,0.9983309507369995,
15450,-0.009780357591807842,0.0026421169750392437,0.9983463883399963,
15460,-0.009701231494545937,0.002348823007196188,0.9994423985481262,
15470,-0.009942986071109772,0.003181365318596363,1.0005091428756714,
15480,-0.00878212321549654,0.0028428889345377684,1.0006333589553833,
15490,-0.0072187879122793674,0.0018674882594496012,1.0002944469451904,
15500,-0.007941985502839088,0.0011769027914851904,1.000738501548767,
15510,-0.010085907764732838,0.002918921411037445,0.9991428256034851,
15520,-0.008413566276431084,0.0013468327233567834,0.9982762336730957,
15530,-0.009123045951128006,0.0011081451084464788,1.0003776550292969,
15540,-0.008905242197215557,0.0020187711343169212,1.0002796649932861,
15550,-0.0075490535236895084,0.001713356003165245,0.9999586343765259,
15560,-0.009198884479701519,0.002301631961017847,1.000115156173706,
15570,-0.009670112282037735,0.0023300370667129755,0.9995632767677307,
15580,-0.00850564707070589,0.0011185196926817298,1.0000251531600952,
15590,-0.010565548203885555,-3.4838732972275466e-05,0.9984495639801025,
15600,-0.009018958546221256,-0.0002642616454977542,0.99973064661026,
15610,-0.010302958078682423,0.00047661009011790156,0.9982069134712219,
15620,-0.010364449582993984,0.0025366893969476223,0.9968664050102234,
15630,-0.010412819683551788,0.004246278665959835,0.9966936707496643,
15640,-0.010700487531721592,0.0006006102194078267,0.9985255002975464,
15650,-0.009864240884780884,0.0013035715091973543,1.0014262199401855,
15660,-0.007416560314595699,0.001558744115754962,1.0014667510986328,
15670,-0.008108408190310001,0.0023598347324877977,1.0002802610397339,
15680,-0.009408541955053806,0.0030814020428806543,1.0001477003097534,
15690,-0.007094998378306627,0.0043630641885101795,0.9996907711029053,
15700,-0.010843364521861076,0.0037627273704856634,1.000756859779358,
15710,-0.010108345188200474,0.0020928645972162485,0.9989157915115356,
15720,-0.00899820402264595,0.0027493529487401247,0.9991512894630432,
15730,-0.009585515595972538,0.003330789739266038,0.9994927048683167,
15740,-0.00871813390403986,0.004263438284397125,0.9999621510505676,
15750,-0.008464696817100048,0.0019810956437140703,0.9993698596954346,
15760,-0.008770584128797054,0.003915742039680481,0.9997738599777222,
15770,-0.00763433612883091,0.0027515252586454153,1.0003268718719482,
15780,-0.008423957042396069,0.0015807065647095442,0.9996877908706665,
15790,-0.00901699997484684,0.004620401654392481,0.9955496788024902,
15800,-0.01093804556876421,-0.004244799260050058,0.9939776659011841,
15810,-0.01188342459499836,0.0024114642292261124,1.0038843154907227,
15820,-0.02050892263650894,0.0014627176569774747,0.9767324924468994,
15830,0.0016470056725665927,-0.005678064189851284,0.9817919135093689,
15840,-0.038304656744003296,-0.0037213193718343973,0.9889538884162903,
15850,-0.005399071611464024,0.0125054270029068,1.033912181854248,
15860,0.015375480055809021,0.011002343147993088,0.9826202988624573,
15870,-0.022705629467964172,0.0008828299469314516,1.0447221994400024,
15880,-0.030503589659929276,-0.014244808815419674,0.9966184496879578,
15890,-0.022445548325777054,-0.03128863126039505,0.962180495262146,
15900,-0.022829299792647362,-0.052932754158973694,0.9868771433830261,
15910,-0.02042071335017681,-0.043869055807590485,0.9416980147361755,
15920,-0.059511736035346985,-0.014912082813680172,1.0682501792907715,
15930,-0.028526876121759415,-0.021118639037013054,1.0188254117965698,
15940,-0.016616331413388252,-0.05737869441509247,1.0346609354019165,
15950,0.004370084032416344,0.004443158395588398,0.9479915499687195,
15960,0.027822844684123993,0.06256399303674698,0.9701940417289734,
15970,0.022654861211776733,0.044628046452999115,0.9436460733413696,
15980,0.0030188472010195255,0.017544344067573547,0.9314777851104736,
15990,0.03465006873011589,-0.03264254331588745,0.9990964531898499,
16000,0.008425439707934856,-0.05204078182578087,0.9705111980438232,
16010,-0.012184252962470055,0.016848288476467133,1.006908893585205,
16020,-0.010005827061831951,0.02042691968381405,0.9521179795265198,
16030,0.009907572530210018,-0.009652584791183472,1.0780799388885498,
16040,0.0013237224193289876,-0.02163439430296421,0.9513435363769531,
16050,-0.029714372009038925,0.039398934692144394,0.8774409294128418,
16060,-0.012007796205580235,0.03667575493454933,1.1766530275344849,
16070,-0.014793609268963337,-0.015052497386932373,1.0354869365692139,
16080,-0.014008616097271442,-0.036965835839509964,0.8475545644760132,
16090,-0.0056535303592681885,-0.0027242396026849747,0.9672253131866455,
16100,0.002950657159090042,0.08129872381687164,1.0532630681991577,
16110,-0.03734363988041878,0.02005944773554802,1.050331473350525,
16120,-0.0182825718075037,0.009048834443092346,0.9940730929374695,
16130,0.020230690017342567,0.01752673089504242,1.0774550437927246,
16140,-1.9170422547176713e-06,-0.006449129898101091,0.9549573659896851,
16150,-0.011796820908784866,0.009753471240401268,1.0731327533721924,
16160,-0.012451622635126114,0.04478774964809418,1.022445797920227,
16170,-0.019915273413062096,0.03346699848771095,1.0575522184371948,
16180,0.002401938196271658,0.026472609490156174,0.981889545917511,
16190,0.001993662677705288,0.04802351072430611,1.1187949180603027,
16200,0.01066572405397892,-0.008609354496002197,1.0736106634140015,
16210,-0.01430702954530716,-0.01864277757704258,1.0322494506835938,
16220,-0.03312528505921364,0.007720381021499634,1.0051953792572021,
16230,0.039012566208839417,0.03716018795967102,1.0447689294815063,
16240,0.016240468248724937,0.01800190843641758,1.0083576440811157,
16250,0.0013274133671075106,-0.027200231328606606,0.9914751648902893,
16260,-0.018375350162386894,0.044048845767974854,1.0064393281936646,
16270,0.008595563471317291,0.05335741117596626,1.0153772830963135,
16280,0.012779518961906433,0.05616595223546028,0.9879752397537231,
16290,-0.013287114910781384,0.05746936425566673,0.9479656219482422,
16300,0.010110333561897278,0.007574846502393484,0.947612464427948,
16310,-0.011183355934917927,0.042336057871580124,0.997729480266571,
16320,0.006013093516230583,0.03812079876661301,0.9960665106773376,
16330,-0.015665436163544655,0.029242465272545815,0.994134247303009,
16340,-0.023060718551278114,0.02471676655113697,0.9961815476417542,
16350,0.002256779931485653,-0.0060364422388374805,1.011433482170105,
16360,-0.007970212027430534,0.006710419896990061,1.013916015625,
16370,0.006593326106667519,0.016516175121068954,0.9679577946662903,
16380,-0.003404260380193591,-0.0031448560766875744,1.0254952907562256,
16390,-0.010061411187052727,4.684696614276618e-05,1.03889799118042,
16400,-0.01175865437835455,-0.0003304336278233677,1.0114631652832031,
16410,-0.0016851213295012712,-0.02669842168688774,1.0413087606430054,
16420,0.007910629734396935,-0.001467015128582716,1.073304533958435,
16430,0.001963499467819929,0.006221250165253878,1.070406436920166,
16440,0.004477914422750473,-0.007744307164102793,1.0509214401245117,
16450,0.01285603642463684,0.01535984966903925,1.0596623420715332,
16460,-0.011937713250517845,0.009505514986813068,1.0692332983016968,
16470,-0.008515878580510616,0.043963778764009476,1.0824742317199707,
16480,-0.006048581097275019,0.017034053802490234,1.0530388355255127,
16490,-0.003968559205532074,0.004023720044642687,1.076401948928833,
16500,-0.004582897759974003,-0.0008314339793287218,1.0614597797393799,
16510,-0.011190599761903286,0.09474730491638184,1.0566538572311401,
16520,-0.015943750739097595,0.045156385749578476,1.0488522052764893,
16530,0.0012058032443746924,0.0731600746512413,1.067441701889038,
16540,-0.016101334244012833,0.02117927372455597,1.0849355459213257,
16550,-0.018227076157927513,0.060535091906785965,1.0833042860031128,
16560,0.036784831434488297,-0.005667549557983875,1.0477558374404907,
16570,-0.03899499773979187,0.014133944176137447,1.064485788345337,
16580,0.01867871917784214,-0.007294944953173399,1.0423895120620728,
16590,-0.009062323719263077,-0.004795494489371777,1.0349220037460327,
16600,-0.0013048140099272132,0.007295411545783281,1.0595816373825073,
16610,-0.016788342967629433,0.0029834136366844177,1.0259472131729126,
16620,-0.03347061574459076,-0.003488434012979269,1.0322374105453491,
16630,0.0289695393294096,0.011407303623855114,1.0223073959350586,
16640,0.025933634489774704,0.06859126687049866,1.012650489807129,
16650,0.052623145282268524,-0.012166989967226982,1.0518379211425781,
16660,-0.002166447229683399,0.04321799799799919,0.9948701858520508,
16670,0.003515237011015415,0.03327479213476181,0.9765412211418152,
16680,0.0053123184479773045,-0.0011576329125091434,0.9828677177429199,
16690,0.004246810916811228,0.01376373041421175,1.0166213512420654,
16700,0.013162035495042801,0.026383256539702415,0.9939559698104858,
16710,0.013703466393053532,0.03042237088084221,1.0002068281173706,
16720,-0.008598709478974342,0.13240493834018707,1.0031510591506958,
16730,0.029645701870322227,0.06276843696832657,0.9805107712745667,
16740,0.0186141449958086,0.02757769264280796,0.9785448312759399,
16750,0.00973217748105526,-0.027088627219200134,1.005292534828186,
16760,0.01113129872828722,0.07759713381528854,0.9414138197898865,
16770,-0.029206229373812675,0.013377922587096691,0.9508699774742126,
16780,-0.008613886311650276,0.07484163343906403,0.9785107970237732,
16790,0.010727941989898682,0.07974828779697418,0.9631782174110413,
16800,0.011330087669193745,0.029364388436079025,0.9674530029296875,
16810,0.001767792971804738,0.07967597991228104,0.991568386554718,
16820,0.005925430450588465,0.11523313075304031,0.9442721605300903,
16830,0.003954099491238594,0.05501706153154373,0.9714841842651367,
16840,0.01428197044879198,0.005253961309790611,0.9899985194206238,
16850,0.026809096336364746,0.03703339397907257,1.0187859535217285,
16860,0.013880654238164425,0.06857287883758545,0.9604796767234802,
16870,-0.010863121598958969,0.04021693766117096,1.0881606340408325,
16880,0.016052890568971634,0.02622506394982338,1.0103431940078735,
16890,-0.0013035694137215614,0.01503533124923706,1.0050482749938965,
16900,0.007018683012574911,0.05107561871409416,0.9871472716331482,
16910,0.020949719473719597,0.03701351210474968,0.9964638352394104,
16920,-0.03083939291536808,0.06069840490818024,1.0062389373779297,
16930,0.023989709094166756,0.04657132178544998,0.9937357306480408,
16940,0.03384745121002197,0.008279223926365376,1.008838176727295,
16950,-0.002722172299399972,0.030067967250943184,1.0234489440917969,
16960,0.011603320017457008,0.02304021827876568,0.9637136459350586,
16970,0.0035190607886761427,0.07826864719390869,1.016341209411621,
16980,0.002242858288809657,0.05557633191347122,0.9690565466880798,
16990,0.004686251748353243,0.031013503670692444,0.999235212802887,
17000,0.012866458855569363,0.014179419726133347,0.961696207523346,
17010,0.012972477823495865,0.015025211498141289,0.9541263580322266,
17020,-0.007263165898621082,0.06359006464481354,0.9721663594245911,
17030,0.03128829598426819,0.03357252851128578,1.0148773193359375,
17040,-0.01467653177678585,0.003274376504123211,0.9875494241714478,
17050,0.012948775663971901,0.027800068259239197,0.9943787455558777,
17060,0.029499590396881104,0.028920209035277367,0.9856204390525818,
17070,-0.01465614978224039,0.02610178291797638,0.9915446639060974,
17080,-0.019226903095841408,0.01078079454600811,0.9911707639694214,
17090,-0.01388460211455822,0.05696674436330795,1.0178463459014893,
17100,0.02625828981399536,0.07313734292984009,1.015928864479065,
17110,0.014877751469612122,0.1005823165178299,1.0663337707519531,
17120,-0.006885639391839504,-0.005400456953793764,1.032918930053711,
17130,-0.05755750834941864,0.040198083966970444,1.0201325416564941,
17140,0.0024983533658087254,0.0376761332154274,1.0078001022338867,
17150,0.024866539984941483,0.08514329046010971,1.028184413909912,
17160,0.028383217751979828,0.010364778339862823,1.0444916486740112,
17170,-0.00542984576895833,-0.02947944402694702,1.0436253547668457,
17180,0.0066488864831626415,0.0025392628740519285,1.0239142179489136,
17190,0.01743144541978836,0.006807796657085419,1.041831612586975,
17200,0.002692502224817872,0.03598584234714508,1.053166389465332,
17210,0.011662770062685013,0.015915557742118835,1.0099961757659912,
17220,-0.01614270731806755,0.013230035081505775,1.0418548583984375,
17230,0.03694215789437294,-0.0115133635699749,1.0243210792541504,
17240,-0.00023018136562313884,0.03246530145406723,1.063218355178833,
17250,0.014394493773579597,0.028965918347239494,1.0706877708435059,
17260,0.01981237903237343,-0.017735889181494713,1.0272952318191528,
17270,-0.020428285002708435,0.016152629628777504,1.0989352464675903,
17280,-0.012178941629827023,-0.0016160646919161081,1.130342960357666,
17290,0.000146110774949193,-0.012567859143018723,1.115197777748108,
17300,0.02197113074362278,0.038770824670791626,1.052528738975525,
17310,0.03000628389418125,0.028603998944163322,1.029473066329956,
17320,-0.005940919276326895,-0.005876342765986919,1.0564759969711304,
17330,-0.039940930902957916,0.03437206894159317,1.094207525253296,
17340,0.025734441354870796,-0.0138466265052557,1.0590980052947998,
17350,0.008532392792403698,-0.019735073670744896,1.0314358472824097,
17360,-0.013395538553595543,0.008469745516777039,1.0613621473312378,
17370,-0.01672152429819107,-0.015477880835533142,1.0962047576904297,
17380,-0.01657259464263916,0.028386017307639122,1.1140646934509277,
17390,0.0226810984313488,0.006043038796633482,1.0882489681243896,
17400,0.03182823956012726,-0.03222871571779251,1.035294771194458,
17410,0.0008555568056181073,-0.0073208194226026535,1.0472278594970703,
17420,-0.006910174153745174,0.0762641429901123,1.0987836122512817,
17430,0.007784347981214523,0.04252495616674423,1.1205167770385742,
17440,-0.012150338850915432,0.014609399251639843,1.1081486940383911,
17450,-0.03318984434008598,0.018107866868376732,1.085810661315918,
17460,0.012353479862213135,-0.013047097250819206,1.0674799680709839,
17470,0.022642632946372032,-0.017647067084908485,1.0600225925445557,
17480,-0.020761704072356224,0.020071933045983315,1.0928362607955933,
17490,0.005320352036505938,-0.020149579271674156,1.0851901769638062,
17500,0.02911529317498207,0.005173152312636375,1.0469510555267334,
17510,0.014437651261687279,0.02121453359723091,1.0499593019485474,
17520,-0.0005934484070166945,-0.0013284218730404973,1.0542473793029785,
17530,-0.030126558616757393,0.008875030092895031,1.1094310283660889,
17540,0.009139573201537132,0.059225860983133316,1.072658896446228,
17550,0.02942965365946293,0.0147100193426013,1.040694236755371,
17560,0.022891564294695854,0.04133729636669159,1.0506513118743896,
17570,0.014349943026900291,0.039597027003765106,1.0583789348602295,
17580,0.019309045746922493,0.0015661012148484588,1.0101662874221802,
17590,-0.035038791596889496,0.055357031524181366,1.0678552389144897,
17600,-0.003233954543247819,0.02182268351316452,1.054864764213562,
17610,0.0031224519480019808,-0.013745680451393127,1.041101098060608,
17620,-0.03231268748641014,-0.0029766650404781103,1.0512813329696655,
17630,0.020274026319384575,-0.012825286947190762,0.9917920827865601,
17640,-0.010911761783063412,-0.03675254434347153,1.002436876296997,
17650,-0.0096674095839262,-0.006539559457451105,1.0106720924377441,
17660,0.006915770936757326,0.013909388333559036,1.0276905298233032,
17670,0.03554939478635788,0.037487685680389404,1.0168558359146118,
17680,0.045433465391397476,-0.0003876257687807083,1.022480845451355,
17690,0.0052350228652358055,0.0249898973852396,1.005767822265625,
17700,0.021923547610640526,-0.018781304359436035,0.9818769097328186,
17710,-0.0032458060886710882,0.04224615544080734,1.0058454275131226,
17720,-0.014135620556771755,0.04452717676758766,1.004570722579956,
17730,-0.04108681157231331,0.023011358454823494,0.9913778305053711,
17740,-0.03453783318400383,0.027994748204946518,0.9322994351387024,
17750,0.0225119236856699,-0.001547219231724739,0.9603907465934753,
17760,0.011555476114153862,0.048834338784217834,0.9886941909790039,
17770,0.022475706413388252,0.026216689497232437,0.9452103972434998,
17780,-0.0035707515198737383,0.01470859907567501,0.9407266974449158,
17790,-0.0006638752529397607,-0.006555558647960424,0.9012597799301147,
17800,-0.007381604518741369,0.027580134570598602,0.9557659029960632,
17810,0.03287569805979729,0.026227952912449837,0.9578355550765991,
17820,0.007879123091697693,0.030974429100751877,0.9510313272476196,
17830,0.011043071746826172,0.002229331759735942,0.9894312024116516,
17840,-0.01872318796813488,0.02725544199347496,1.006640076637268,
17850,-0.005626155994832516,0.01136096566915512,1.0013011693954468,
17860,-0.01244320161640644,0.07594702392816544,0.9626504182815552,
17870,0.035100534558296204,0.0652213916182518,0.9807965755462646,
17880,0.05911700055003166,0.021236257627606392,1.0046229362487793,
17890,0.02493891492486,0.014495671726763248,1.0132803916931152,
17900,0.0070072659291327,-0.033041056245565414,0.9810901880264282,
17910,-0.017911938950419426,0.06180129945278168,1.0007860660552979,
17920,0.012183534912765026,-7.18932569725439e-05,0.9778364896774292,
17930,-0.01297270879149437,0.0212823748588562,0.9895718097686768,
17940,0.005765709560364485,0.056990690529346466,0.991801917552948,
17950,0.007222888991236687,0.05744462087750435,0.9794590473175049,
17960,0.02925383299589157,0.03108559362590313,1.0139403343200684,
17970,0.02496926113963127,0.021842099726200104,1.031139850616455,
17980,-0.023561540991067886,-0.023878326639533043,1.042846918106079,
17990,-0.030117224901914597,0.049479175359010696,0.972929835319519,
18000,0.002976857591420412,0.008366244845092297,0.9929598569869995,
18010,0.03642267733812332,0.10296501219272614,1.0136276483535767,
18020,0.014511557295918465,0.030870206654071808,1.0135868787765503,
18030,-0.011792652308940887,-0.0059384191408753395,0.9835987687110901,
18040,-0.004840571898967028,0.006642698775976896,1.0108855962753296,
18050,0.021595437079668045,-0.014328363351523876,0.9826304912567139,
18060,0.009756599552929401,-0.009828331880271435,0.997455358505249,
18070,0.000769364763982594,0.03113354556262493,0.9889703392982483,
18080,0.018735751509666443,0.020609000697731972,1.0097352266311646,
18090,0.011827931739389896,0.07485576719045639,1.0231045484542847,
18100,-0.008324810303747654,0.03178801015019417,1.0597227811813354,
18110,-0.027035841718316078,-0.0367756187915802,0.9943130612373352,
18120,-0.0030188944656401873,-0.002539021661505103,0.9758277535438538,
18130,0.044830337166786194,0.02125215344130993,0.9846938252449036,
18140,0.01041320338845253,0.002886941423639655,0.9919830560684204,
18150,0.0017578790429979563,-0.020755281671881676,0.9800587892532349,
18160,-0.0040388996712863445,0.00381031003780663,1.004418969154358,
18170,0.0024556557182222605,-0.01436364371329546,0.9781351089477539,
18180,-0.0365375354886055,0.02838544175028801,0.9938426613807678,
18190,0.02014363370835781,0.03235595300793648,0.9689976572990417,
18200,0.017467163503170013,0.03534949943423271,0.956191897392273,
18210,0.04128875955939293,-0.006873625796288252,1.0206053256988525,
18220,0.01203532051295042,0.008646732196211815,1.0131471157073975,
18230,0.00313630816526711,-0.04966079443693161,0.985004723072052,
18240,-0.03795568272471428,0.02720618061721325,0.9895982146263123,
18250,-0.00982396025210619,0.03252270072698593,0.9852046370506287,
18260,-0.02631974406540394,0.04843762144446373,0.9884148240089417,
18270,0.024944832548499107,0.009022632613778114,0.9583049416542053,
18280,-0.037337884306907654,0.031840432435274124,1.016677737236023,
18290,-0.00850718840956688,-0.03282824531197548,0.9713316559791565,
18300,-0.022754890844225883,0.005074738059192896,1.0098755359649658,
18310,0.021602343767881393,-0.0015765584539622068,0.9788517951965332,
18320,0.003081671427935362,0.053633105009794235,0.9429990649223328,
18330,0.04861578717827797,0.07583511620759964,0.9644898772239685,
18340,0.015221317298710346,0.01822144165635109,0.9707373976707458,
18350,-0.03272828459739685,-0.008245457895100117,0.9761478900909424,
18360,-0.004617470316588879,-0.014212413690984249,0.9997265934944153,
18370,2.744449011515826e-05,0.02089368738234043,0.9991909861564636,
18380,-0.018850114196538925,-0.022394942119717598,0.949652373790741,
18390,0.01400159765034914,0.014313789084553719,0.9516509771347046,
18400,-0.015153713524341583,0.020409921184182167,0.9882562756538391,
18410,-0.014007466845214367,-0.0023141265846788883,0.9841779470443726,
18420,0.0057248990051448345,-0.0057239593006670475,0.9946892261505127,
18430,0.014603846706449986,0.021632231771945953,1.006987452507019,
18440,0.03472776338458061,-0.019102077931165695,0.9776498675346375,
18450,-0.0057992395013570786,0.05357636138796806,0.9877781867980957,
18460,0.03738852217793465,0.013944486156105995,0.9752324223518372,
18470,0.012361325323581696,0.0646018236875534,1.0496101379394531,
18480,0.024435529485344887,0.06686616688966751,1.0061475038528442,
18490,0.03931323066353798,0.03975721821188927,1.016987919807434,
18500,-0.0027516877744346857,0.06421304494142532,1.0476497411727905,
18510,0.005908483639359474,0.0018413779325783253,0.997230589389801,
18520,-0.0019064480438828468,0.01945573091506958,0.9816828966140747,
18530,0.013295350596308708,0.016689099371433258,1.0215225219726562,
18540,0.015480704605579376,0.019582411274313927,1.0165867805480957,
18550,0.008873522281646729,0.036000922322273254,1.046238899230957,
18560,0.022125491872429848,-0.022135725244879723,0.9986993670463562,
18570,-0.028923841193318367,0.13797569274902344,1.028942346572876,
18580,0.010508163832128048,0.02397187612950802,1.002524971961975,
18590,0.014310214668512344,0.017577914521098137,1.0101219415664673,
18600,-0.007560547906905413,0.058811914175748825,1.004992127418518,
18610,0.029990283772349358,0.02864314615726471,0.9890138506889343,
18620,-0.01042219903320074,0.08364267647266388,1.014289379119873,
18630,0.03090798668563366,0.06369254738092422,0.9938397407531738,
18640,0.0019646133296191692,0.05923611298203468,1.0571695566177368,
18650,0.03968365490436554,-0.010387253947556019,1.00176203250885,
18660,0.008545315824449062,-0.024550510570406914,0.9896981120109558,
18670,0.0022055439185351133,0.011812631040811539,1.0336148738861084,
18680,0.0068347561173141,-0.04352796822786331,1.0207847356796265,
18690,-0.008233915083110332,0.03184378892183304,1.0375583171844482,
18700,-0.01205994188785553,0.01675409823656082,1.040431022644043,
18710,-0.021141046658158302,0.0024039335548877716,0.9931885004043579,
18720,-0.04106829687952995,0.022961128503084183,1.019048810005188,
18730,-0.01445712149143219,-0.02015002630650997,0.9960371255874634,
18740,-0.04311474412679672,0.08317412436008453,0.9839563369750977,
18750,0.04124117270112038,0.01374615915119648,0.9675612449645996,
18760,0.02323479764163494,0.0673021674156189,1.0293546915054321,
18770,0.040389928966760635,0.008444538339972496,0.9844756126403809,
18780,-0.034830186516046524,-0.03125223144888878,0.9886008501052856,
18790,0.00491134962067008,-0.005041470751166344,0.9597097039222717,
18800,-0.0031809851061552763,0.014261436648666859,0.9808523058891296,
18810,-0.012585134245455265,0.021815933287143707,0.9698371291160583,
18820,0.02038249373435974,-0.009636230766773224,0.9624477028846741,
18830,0.05835777893662453,0.014660686254501343,0.9927236437797546,
18840,0.018810966983437538,0.006102704908698797,1.0055043697357178,
18850,0.005185105372220278,0.04406805709004402,0.9549206495285034,
18860,0.011737875640392303,-0.011508704163134098,1.0028393268585205,
18870,-0.031754594296216965,0.028903421014547348,0.9983270168304443,
18880,0.015103298239409924,-0.01173512265086174,0.9872070550918579,
18890,-0.012259154580533504,0.010861481539905071,0.9750100374221802,
18900,0.028441645205020905,0.03551566228270531,0.9523726105690002,
18910,0.02534441463649273,0.06379099935293198,0.9908125400543213,
18920,0.024226712062954903,0.03558504953980446,1.0126148462295532,
18930,0.0023585797753185034,0.004268714226782322,0.976250171661377,
18940,-0.013610659167170525,-0.01499683503061533,0.9937666654586792,
18950,-0.0040817600674927235,-0.013509678654372692,0.9492965340614319,
18960,0.0006449789507314563,-0.0033985499758273363,0.9695450067520142,
18970,0.008909529075026512,-0.011078146286308765,0.9763898849487305,
18980,-0.013282218016684055,0.01019618846476078,0.9608619809150696,
18990,0.005485937464982271,-0.0060273087583482265,0.9525525569915771,
19000,0.023035399615764618,0.03757837787270546,0.9927181601524353,
19010,0.004139652941375971,-0.016564469784498215,0.9890872240066528,
19020,-0.02120101824402809,0.026567300781607628,0.9712083339691162,
19030,0.000544295588042587,0.012948572635650635,0.9602208733558655,
19040,-0.013983137905597687,0.09699226170778275,0.978425920009613,
19050,0.048004571348428726,0.0023138292599469423,0.9563857913017273,
19060,0.025536494329571724,-0.005486610811203718,0.9898847341537476,
19070,0.004537008702754974,-0.002281683497130871,0.9844931960105896,
19080,-0.03644651174545288,0.023097924888134003,0.9621585011482239,
19090,0.007999332621693611,0.09616679698228836,0.9596379995346069,
19100,0.014037949033081532,0.0017761128256097436,0.9497506618499756,
19110,0.0036111753433942795,-0.011318528093397617,0.99199378490448,
19120,-0.00403067609295249,-0.0007414045394398272,0.9844180345535278,
19130,0.007742396090179682,-0.00927688553929329,0.9809144139289856,
19140,-0.009056827053427696,0.01716211438179016,0.9596037864685059,
19150,0.027793876826763153,0.03973216935992241,0.9883204102516174,
19160,0.028898654505610466,0.0330527164041996,0.9982942938804626,
19170,-0.005214383825659752,-0.004311253782361746,1.0006566047668457,
19180,0.0016107145929709077,-0.029012180864810944,1.0008115768432617,
19190,-0.03279398754239082,0.033402152359485626,1.0031945705413818,
19200,0.0015158819733187556,0.029551375657320023,0.9838213324546814,
19210,-0.023265548050403595,0.033596839755773544,0.9901065826416016,
19220,0.02764711156487465,0.0032004022505134344,0.9620728492736816,
19230,0.030109118670225143,-0.009555634111166,0.9958645701408386,
19240,0.018597831949591637,0.09159496426582336,1.0143417119979858,
19250,0.04825770854949951,0.01379710715264082,0.9823148846626282,
19260,-3.421898509259336e-05,0.02883908525109291,1.0033496618270874,
19270,0.012223625555634499,-0.02086556702852249,0.9956557154655457,
19280,-0.0020067302975803614,-0.014981171116232872,1.0302414894104004,
19290,0.013308681547641754,-0.017485830932855606,1.0135430097579956,
19300,-0.0041799345053732395,0.02721412479877472,1.0165200233459473,
19310,0.010899742133915424,0.02442789636552334,1.0092886686325073,
19320,0.018886547535657883,0.08118874579668045,1.0548022985458374,
19330,0.015906136482954025,0.046672988682985306,1.053694725036621,
19340,0.01881725899875164,-0.009714541956782341,0.987513542175293,
19350,-0.013164203613996506,-4.6374054363695905e-05,1.02491295337677,
19360,0.025426428765058517,-0.018714196979999542,1.0009068250656128,
19370,-0.005632565822452307,0.006889575161039829,1.0364521741867065,
19380,0.021009324118494987,0.00805469136685133,1.006312608718872,
19390,0.0018994644051417708,0.013113743625581264,1.0251003503799438,
19400,-0.009448283351957798,-0.006378282327204943,1.0289920568466187,
19410,0.012266178615391254,-0.019750311970710754,0.9939886927604675,
19420,0.003574612783268094,0.01483178324997425,1.0182870626449585,
19430,-0.004931907635182142,0.008567526005208492,1.0145999193191528,
19440,-0.007587283384054899,0.03420347347855568,0.9674805998802185,
19450,0.010892617516219616,0.017266975715756416,0.9886580109596252,
19460,0.03245982900261879,0.01868569478392601,0.9828538298606873,
19470,0.000675339309964329,0.004353068303316832,0.9810624122619629,
19480,-0.019089791923761368,0.028125304728746414,1.0126065015792847,
19490,-0.005806585308164358,0.04129764810204506,1.0067874193191528,
19500,-0.009300676174461842,0.04116082191467285,0.9930200576782227,
19510,0.011641662567853928,0.03779367730021477,1.0020179748535156,
19520,0.008906914852559566,0.018443020060658455,0.9701423645019531,
19530,-0.016636725515127182,0.00022240639373194426,0.9804976582527161,
19540,-0.003455799538642168,-0.00830823089927435,0.9633374214172363,
19550,-0.01614672690629959,0.0038360871840268373,0.9494243264198303,
19560,0.003564709099009633,-0.01904606819152832,0.9670563340187073,
19570,0.00026805096422322094,-0.030368370935320854,0.9518465995788574,
19580,-0.0005786382826045156,0.014825019985437393,0.9693964123725891,
19590,0.007109978701919317,-0.016588415950536728,0.9393314123153687,
19600,0.0030050636269152164,-0.004349185153841972,0.9651776552200317,
19610,0.006699889432638884,-0.011493274010717869,0.9632927179336548,
19620,-0.028231846168637276,0.030773038044571877,0.9665725827217102,
19630,0.010518093593418598,0.04617873579263687,0.9813130497932434,
19640,0.0018947063945233822,0.0629950761795044,0.9974823594093323,
19650,-0.00014682498294860125,0.04057169333100319,0.9558961391448975,
19660,0.009226099587976933,0.06754596531391144,0.9675069451332092,
19670,-0.006955298595130444,-0.0352160707116127,0.9937692880630493,
19680,0.003424383932724595,0.028713131323456764,0.9556759595870972,
19690,-0.023608373478055,0.015988625586032867,0.9550948739051819,
19700,-0.03166017681360245,0.010025992058217525,0.9621074199676514,
19710,-0.007960004732012749,0.08400151133537292,0.9336545467376709,
19720,-0.005669717211276293,0.009351386688649654,0.9384111166000366,
19730,-0.03844340890645981,0.06317736208438873,0.9513773918151855,
19740,-0.00991479866206646,0.0023160267155617476,0.9510704278945923,
19750,-0.00028689473401755095,0.011794386431574821,0.9399919509887695,
19760,-0.03550803288817406,0.030183615162968636,0.9344985485076904,
19770,-0.009391257539391518,0.010553481988608837,0.9785953164100647,
19780,-0.03015584498643875,0.06757473945617676,0.9346146583557129,
19790,0.009071599692106247,-0.02779102884232998,0.9088616371154785,
19800,-0.012221201322972775,0.0016797644784674048,0.9417057037353516,
19810,-0.022345170378684998,0.027785688638687134,0.950603187084198,
19820,0.01417163573205471,0.013511263765394688,0.9566701054573059,
19830,-0.005770680494606495,0.03745868802070618,0.9902626276016235,
19840,0.004377148579806089,0.0030410694889724255,0.9536970257759094,
19850,0.008967701345682144,0.02645125798881054,0.9408693313598633,
19860,-0.015479248948395252,0.013162199407815933,0.9389228820800781,
19870,-0.0032795409206300974,-0.02133685164153576,0.9051731824874878,
19880,-0.022594701498746872,0.004725226666778326,0.966667652130127,
19890,0.008193365298211575,0.004018825478851795,0.939954400062561,
19900,-0.043658751994371414,-0.002389012137427926,0.9579795598983765,
19910,0.008727055974304676,0.025220325216650963,0.9320364594459534,
19920,-0.02081991545855999,-0.017835047096014023,0.9735374450683594,
19930,-0.013953778892755508,0.014223710633814335,0.9570997953414917,
19940,-0.013243238441646099,0.06246166303753853,0.9405929446220398,
19950,-0.03955862671136856,0.036989498883485794,0.9674491882324219,
19960,-0.014808423817157745,0.05048352852463722,0.965948760509491,
19970,-0.004739994648844004,0.03591039404273033,0.9593173265457153,
19980,-0.04813772812485695,0.0673968568444252,0.9805115461349487,
19990,-0.01122551690787077,-0.005968779791146517,0.9531094431877136,
20000,-0.04119931906461716,0.05442088097333908,0.9264487028121948,
20010,-0.03640253469347954,0.03520537540316582,0.9470459818840027,
20020,-0.02178356982767582,0.033441994339227676,0.9596172571182251,
20030,-0.0166814886033535,0.020171277225017548,0.951860249042511,
20040,-0.014383761212229729,0.018918132409453392,0.9679788947105408,
20050,-0.021496208384633064,0.0013134354958310723,0.9705464243888855,
20060,-0.006031681317836046,-0.0060470858588814735,0.9775250554084778,
20070,-0.03919823840260506,0.004313549026846886,1.0022156238555908,
20080,0.013430783525109291,0.0065275756642222404,0.9509339332580566,
20090,0.018494484946131706,0.023460038006305695,0.9971559643745422,
20100,-0.03783451020717621,0.002678440883755684,0.9814802408218384,
20110,-0.01649719849228859,0.04637988284230232,0.9845554828643799,
20120,-0.02244292013347149,0.06093357130885124,0.9863426685333252,
20130,0.0002658600569702685,0.0012251565931364894,0.976566731929779,
20140,-0.0043044183403253555,-0.008437971584498882,0.9879754185676575,
20150,0.04766381159424782,-0.015058184042572975,0.9449792504310608,
20160,-0.007790601812303066,0.016878152266144753,1.0034559965133667,
20170,0.02163565158843994,-0.03443752974271774,1.002373456954956,
20180,-0.024953890591859818,0.02084573544561863,1.0370800495147705,
20190,-0.018035342916846275,0.04880538582801819,1.0043456554412842,
20200,0.004121416248381138,0.12471093982458115,0.9958410263061523,
20210,0.019784430041909218,0.05163891986012459,0.9994403123855591,
20220,-0.03733319789171219,0.010948918759822845,1.0087800025939941,
20230,-0.00400720676407218,-0.0015266529517248273,0.9930859804153442,
20240,-0.0371282659471035,-0.005351351108402014,0.9972116351127625,
20250,0.004680133890360594,-0.0038883471861481667,0.9827210903167725,
20260,-0.014035793021321297,-0.004794031381607056,0.9935317635536194,
20270,-0.023316435515880585,0.0066269803792238235,1.0106998682022095,
20280,-0.021231910213828087,0.037798043340444565,0.9865910410881042,
20290,0.007631553336977959,0.10307884216308594,1.0323030948638916,
20300,0.02522357739508152,0.03991217911243439,0.9961013197898865,
20310,0.00010294127423549071,-0.014067495241761208,1.0017035007476807,
20320,0.0014478968223556876,0.026878105476498604,0.9792107343673706,
20330,-0.006058986764401197,-0.010020741261541843,1.0180621147155762,
20340,-0.024097857996821404,0.02259872294962406,0.9987815022468567,
20350,0.012037747539579868,0.02429690957069397,1.0073448419570923,
20360,-0.022334132343530655,0.00650199456140399,1.0167042016983032,
20370,-0.036511559039354324,-0.002845221199095249,1.024743914604187,
20380,-0.023293128237128258,0.016005994752049446,1.0391772985458374,
20390,0.0028158342465758324,-0.042333200573921204,0.9998382329940796,
20400,-0.039069488644599915,0.12986202538013458,1.0026319026947021,
20410,0.06335023045539856,0.05114617943763733,0.9705847501754761,
20420,-0.011286932043731213,0.04704715684056282,1.0305505990982056,
20430,0.012058760970830917,-0.05051085725426674,0.980844259262085,
20440,-0.024277282878756523,0.0008959831902757287,1.092998743057251,
20450,-0.01233594585210085,-0.014285802841186523,1.024145483970642,
20460,-0.01831698976457119,0.0057303872890770435,1.0238646268844604,
20470,0.01711798831820488,-0.006446485873311758,1.0033613443374634,
20480,0.0015674361493438482,0.05057932436466217,0.9997714161872864,
20490,0.03688373416662216,0.022948190569877625,0.9979031682014465,
20500,-0.03814474865794182,0.05126923322677612,1.0672874450683594,
20510,0.006643532309681177,-0.03585067763924599,0.9994309544563293,
20520,-0.011849130503833294,-0.01928582787513733,1.0319966077804565,
20530,-0.00829086359590292,0.01330343447625637,1.0036941766738892,
20540,-0.010847091674804688,-0.015354727394878864,1.027134656906128,
20550,0.0014209887012839317,-0.01896595023572445,1.0036165714263916,
20560,-0.013358054682612419,0.04084908962249756,1.0424675941467285,
20570,-0.010223385877907276,-0.007062067743390799,1.0182161331176758,
20580,-0.025103067979216576,-0.015924034640192986,1.0220849514007568,
20590,-0.008595521561801434,0.0014446158893406391,1.016864538192749,
20600,-0.02711927518248558,-0.022512149065732956,1.0137661695480347,
20610,-0.029156804084777832,0.09898698329925537,0.9729583859443665,
20620,0.0359673909842968,0.07826820760965347,0.9986227750778198,
20630,0.0072328271344304085,0.05151141434907913,1.0421380996704102,
20640,-0.015260402113199234,-0.005735007114708424,1.0049736499786377,
20650,-0.009558849036693573,0.009150461293756962,1.0062477588653564,
20660,-0.013555094599723816,-0.02293771505355835,0.9961373209953308,
20670,-0.012388783507049084,0.004700236488133669,0.984661340713501,
20680,-0.004510350059717894,-0.013135414570569992,0.9735647439956665,
20690,-0.020438145846128464,0.021899588406085968,0.9759840965270996,
20700,0.008545786142349243,0.03336828574538231,0.9597156643867493,
20710,-0.008069239556789398,0.03202405199408531,0.9854258298873901,
20720,-0.02104201167821884,0.008494915440678596,0.9787427186965942,
20730,0.0014775909949094057,0.00847924966365099,0.9605914950370789,
20740,0.027445968240499496,0.05444268509745598,0.9832535982131958,
20750,0.004304061643779278,0.03884420171380043,0.9938869476318359,
20760,-0.019406460225582123,0.05386187136173248,0.9833529591560364,
20770,0.024058202281594276,0.022374672815203667,0.9986537098884583,
20780,-0.023893985897302628,-0.016366343945264816,1.0119295120239258,
20790,-0.02077113650739193,-0.014064518734812737,0.9899712800979614,
20800,-0.014759435318410397,-0.007415045518428087,0.976701021194458,
20810,0.00931622926145792,0.014097245410084724,0.9779008030891418,
20820,-0.028514515608549118,0.02141747623682022,0.9994508028030396,
20830,-0.0021826159209012985,0.01421369705349207,0.9866905808448792,
20840,0.006452162284404039,0.03604365140199661,0.9553549289703369,
20850,0.04053365811705589,-0.018863752484321594,1.0151101350784302,
20860,-0.019465414807200432,0.06308744102716446,1.0344226360321045,
20870,-0.015879308804869652,0.02567363902926445,1.0037039518356323,
20880,0.0035870156716555357,0.0774744302034378,0.9640012383460999,
20890,0.039742644876241684,0.032170165330171585,1.003428339958191,
20900,-0.04387276619672775,0.03449453413486481,0.9864882826805115,
20910,-0.0226413793861866,0.02861352637410164,0.9719974994659424,
20920,0.003939465153962374,0.002880702493712306,1.0022649765014648,
20930,-0.009582997299730778,-0.02955929934978485,1.0217487812042236,
20940,0.011017324402928352,0.026988105848431587,1.00895094871521,
20950,0.0018794392235577106,-0.029061773791909218,1.0017168521881104,
20960,-0.02461012825369835,-0.012562069110572338,0.9975958466529846,
20970,0.01532207615673542,0.007272908929735422,0.9992454051971436,
20980,-0.003313639434054494,0.06974505633115768,0.9828587174415588,
20990,0.02657908760011196,0.08335760980844498,0.9708831310272217,
21000,-0.0009388402686454356,0.03682930767536163,1.040539026260376,
21010,-0.005658498965203762,-0.0012851201463490725,1.023811936378479,
21020,-0.0017809555865824223,-0.062294650822877884,0.9886560440063477,
21030,-0.017206477001309395,0.09952636063098907,0.9912171959877014,
21040,0.025207458063960075,0.07498158514499664,0.9738748073577881,
21050,-0.026778733357787132,0.03491432964801788,1.0096021890640259,
21060,-0.004043234512209892,-0.02740674652159214,1.0009018182754517,
21070,0.001240799087099731,-0.002003058325499296,1.0125598907470703,
21080,-0.007154257968068123,-0.004844039678573608,0.9894512891769409,
21090,-0.018675189465284348,0.04488672316074371,1.000610113143921,
21100,0.013711515814065933,0.06054482236504555,0.9830024838447571,
21110,0.0061843241564929485,0.05002368614077568,0.9920108318328857,
21120,0.02913140319287777,-0.0177619569003582,1.0183881521224976,
21130,-0.03597010672092438,0.024189993739128113,1.0300920009613037,
21140,-0.00831454899162054,0.032563988119363785,0.994657576084137,
21150,-0.007129980716854334,0.10459092259407043,0.9884958267211914,
21160,0.03470512479543686,0.06634419411420822,1.0039050579071045,
21170,-0.013409605249762535,-0.007097303401678801,0.9879608154296875,
21180,0.027140861377120018,-0.013040253892540932,0.9936234354972839,
21190,-0.005824297200888395,0.01077354233711958,1.019351601600647,
21200,-0.02097637951374054,0.0038911961019039154,1.0314892530441284,
21210,-0.02035626582801342,0.07946371287107468,0.9918259382247925,
21220,0.0006388938636519015,0.02490520291030407,1.0435398817062378,
21230,-0.0008608722127974033,0.020933259278535843,0.9971446990966797,
21240,0.01262622606009245,0.04071439057588577,1.007550835609436,
21250,0.024609221145510674,0.055238522589206696,1.0214494466781616,
21260,0.013142847456037998,0.09152913093566895,1.075547218322754,
21270,0.015794919803738594,0.008337099105119705,1.0317081212997437,
21280,-0.038659680634737015,0.000616567675024271,1.0060765743255615,
21290,0.038809649646282196,-0.018900681287050247,0.9959264993667603,
21300,-0.007792697753757238,0.012156027369201183,1.0388216972351074,
21310,-0.016575422137975693,0.020971979945898056,1.0135420560836792,
21320,0.004003109876066446,0.0771370381116867,0.9828681349754333,
21330,0.02693799138069153,0.031698618084192276,1.0104780197143555,
21340,0.0023685030173510313,0.0364440493285656,0.9961094260215759,
21350,0.016590707004070282,0.018111685290932655,1.0121344327926636,
21360,0.027981173247098923,0.02001820132136345,1.0272659063339233,
21370,0.0012204806553199887,-0.026986194774508476,1.0464107990264893,
21380,-0.028605323284864426,0.004657406359910965,1.0208382606506348,
21390,0.006973995361477137,0.03799620643258095,0.97284996509552,
21400,-0.0019176439382135868,0.0005275693256407976,1.010982871055603,
21410,-0.01183745265007019,-0.006288398522883654,0.9936103224754333,
21420,0.0032618229743093252,0.02825647033751011,1.0204212665557861,
21430,0.0017561294371262193,0.04163719341158867,1.0179988145828247,
21440,-0.019822612404823303,-0.007932639680802822,1.0038883686065674,
21450,-0.020191309973597527,0.007061554118990898,1.0313243865966797,
21460,-0.009356997907161713,-0.04891732335090637,1.014408826828003,
21470,-0.0646790936589241,0.07543318718671799,1.000180959701538,
21480,0.04553141072392464,0.009107671678066254,0.9509225487709045,
21490,0.013503329828381538,0.07758918404579163,1.0435229539871216,
21500,0.0011877439683303237,0.0014263878110796213,1.0237869024276733,
21510,-0.005177817773073912,-0.020842188969254494,0.995867133140564,
21520,-0.015013587661087513,0.001941871247254312,0.9904558062553406,
21530,-0.013533135876059532,-0.001961040310561657,0.959185004234314,
21540,0.00490658450871706,0.0012120493920519948,0.9745438098907471,
21550,-0.02183498442173004,0.012526157312095165,1.0001378059387207,
21560,-0.010129567235708237,-0.013031015172600746,0.9707736372947693,
21570,0.0036537465639412403,0.05039414018392563,0.9167019128799438,
21580,0.01824059709906578,0.009446355514228344,0.9609050750732422,
21590,-0.07729468494653702,0.07932177186012268,0.9659888744354248,
21600,0.02220109850168228,0.031006159260869026,0.957638680934906,
21610,0.005865209735929966,-0.0068715838715434074,0.984708845615387,
21620,0.003150465665385127,0.00204339693300426,1.0057830810546875,
21630,-0.028237316757440567,0.018739255145192146,0.9946075677871704,
21640,0.021892448887228966,0.043078310787677765,0.9558437466621399,
21650,-0.006257265340536833,-0.008842404000461102,0.9661425352096558,
21660,-0.013766578398644924,0.052474770694971085,0.9974679946899414,
21670,0.042186424136161804,0.01087287999689579,0.993497371673584,
21680,-0.0022357048001140356,0.015741370618343353,1.021347165107727,
21690,-0.015115069225430489,0.02003994770348072,0.9958961606025696,
21700,-0.04950398951768875,0.05355165898799896,0.9669427275657654,
21710,0.031132953241467476,0.07971180230379105,0.9589465856552124,
21720,-0.00634271465241909,-0.022096432745456696,0.9724101424217224,
21730,0.03719538077712059,0.00265758135356009,1.0286281108856201,
21740,-0.0005550420028157532,0.01818816363811493,1.0094598531723022,
21750,-0.012246058322489262,0.0021221505012363195,1.005752682685852,
21760,0.004137159325182438,0.025110621005296707,0.9787053465843201,
21770,-0.005597126204520464,0.02325236052274704,1.0340464115142822,
21780,-0.025770604610443115,0.02964709885418415,1.0270509719848633,
21790,-0.022350432351231575,-0.010888214223086834,1.0370360612869263,
21800,-0.029531583189964294,-0.011961444281041622,0.9869642853736877,
21810,0.02809099666774273,0.0006361667765304446,1.0091434717178345,
21820,-0.013325434178113937,0.07694108784198761,1.0298030376434326,
21830,0.023938996717333794,0.09818322956562042,1.0553752183914185,
21840,-0.0075851441361010075,0.02444537729024887,1.0237833261489868,
21850,-0.014657087624073029,-0.01750427857041359,1.0046406984329224,
21860,-0.01033992413431406,0.005432938225567341,1.059836745262146,
21870,-0.014431917108595371,-0.006629957351833582,1.0494030714035034,
21880,-0.018442997708916664,-0.023960044607520103,1.039635181427002,
21890,-0.02262692339718342,0.019328605383634567,1.0518094301223755,
21900,-0.007650742307305336,-0.05568103864789009,1.01511549949646,
21910,-0.05614440143108368,0.08499164879322052,1.053713083267212,
21920,-0.0013468496035784483,0.021873002871870995,1.0166019201278687,
21930,-0.01260876003652811,0.045683201402425766,1.0118545293807983,
21940,0.01630905643105507,0.057436294853687286,1.033923625946045,
21950,0.015033985488116741,0.02288643829524517,1.0152181386947632,
21960,-0.019739849492907524,0.034676991403102875,1.0405941009521484,
21970,0.019204754382371902,-0.010394667275249958,0.9938644766807556,
21980,-0.0049734581261873245,-0.012208913452923298,1.0187188386917114,
21990,-0.02830004133284092,0.004641427192837,1.0127811431884766,
22000,-0.013645193539559841,0.0318889282643795,1.0123730897903442,
22010,0.020565925166010857,0.036298394203186035,1.0000911951065063,
22020,0.018825005739927292,0.03655821830034256,0.9880332946777344,
22030,0.0021794592030346394,0.01152133196592331,1.0373581647872925,
22040,-0.025684397667646408,0.021994780749082565,1.0017672777175903,
22050,-0.015687527135014534,0.014484483748674393,1.0037176609039307,
22060,0.02087889052927494,0.07778962701559067,1.0241408348083496,
22070,0.00640620943158865,0.03652738779783249,1.0023126602172852,
22080,-0.011051645502448082,0.016981802880764008,0.9795493483543396,
22090,-0.00640264293178916,0.0190899521112442,1.0094947814941406,
22100,-0.004485905170440674,-0.011558142490684986,0.9899117350578308,
22110,-0.009704225696623325,0.007878460921347141,1.0017683506011963,
22120,-0.00894573051482439,-0.02595292590558529,0.9810530543327332,
22130,-0.01989215798676014,0.012798644602298737,0.9963739514350891,
22140,-0.009524446912109852,0.055818092077970505,0.9633181095123291,
22150,-0.009594826027750969,0.09686315059661865,1.006256103515625,
22160,-0.008794672787189484,0.03578599542379379,1.0270516872406006,
22170,0.00592902721837163,0.06685931235551834,0.9691128730773926,
22180,0.016375621780753136,0.04476334899663925,1.0351704359054565,
22190,-0.01894398033618927,0.00994055811315775,0.9995350241661072,
22200,0.0028112586587667465,0.0035408446565270424,0.9905418157577515,
22210,0.004411456175148487,-0.009921776130795479,0.977374792098999,
22220,-0.0009853028459474444,-0.0019681784324347973,0.9893217086791992,
22230,0.005482182838022709,0.006085661239922047,0.9700447916984558,
22240,0.010918376967310905,-0.010103235952556133,0.9847639799118042,
22250,-0.01876995339989662,0.042779743671417236,1.0093432664871216,
22260,-0.00015135903959162533,0.010070355609059334,0.9380455613136292,
22270,0.005137273110449314,0.10288530588150024,0.9945995211601257,
22280,-0.013155097141861916,0.04846179485321045,1.0071535110473633,
22290,-0.06286829710006714,0.04788806289434433,0.9809193015098572,
22300,0.02699977345764637,0.0163581483066082,0.9969423413276672,
22310,-0.025815090164542198,0.0033375073689967394,1.0169527530670166,
22320,-0.004161239601671696,0.004428424406796694,0.9999161958694458,
22330,0.0022983702365309,0.02881382219493389,1.0080450773239136,
22340,-0.004032984841614962,0.009256686083972454,0.9902165532112122,
22350,-0.02080545388162136,-0.0007284921011887491,1.0077946186065674,
22360,0.0011859883088618517,0.019413983449339867,0.9788410663604736,
22370,-0.011554612778127193,-0.01676313392817974,1.039661169052124,
22380,-0.020402321591973305,0.039274200797080994,0.9999306797981262,
22390,0.030422499403357506,0.026857890188694,1.0050313472747803,
22400,0.0017276142025366426,0.02307567559182644,1.0202537775039673,
22410,0.00941189844161272,-0.025544095784425735,0.9923548102378845,
22420,-0.00484211603179574,0.061602503061294556,1.0076290369033813,
22430,0.042566727846860886,-0.0197287630289793,0.9691622853279114,
22440,-0.06800863891839981,0.06736693531274796,1.0054186582565308,
22450,-0.010557780973613262,0.07654926925897598,0.9988447427749634,
22460,-0.004588041454553604,0.08055538684129715,1.0298523902893066,
22470,-0.002181286457926035,-0.0065734731033444405,1.0260355472564697,
22480,-0.0019729160703718662,0.0395788848400116,1.0070726871490479,
22490,0.007574066519737244,0.024949219077825546,1.023313283920288,
22500,-0.003358677262440324,-0.008183028548955917,1.0235786437988281,
22510,-0.021498650312423706,0.035466790199279785,1.0050140619277954,
22520,0.024265479296445847,0.03824256360530853,1.0095255374908447,
22530,0.012715914286673069,0.0173176359385252,1.035881757736206,
22540,-0.023333167657256126,-0.0052322749979794025,1.0123579502105713,
22550,-0.014244088903069496,0.015058757737278938,1.0163851976394653,
22560,0.01760716550052166,0.03338726609945297,0.9876893162727356,
22570,0.008266720920801163,0.024347729980945587,1.0417252779006958,
22580,-0.015885867178440094,0.07428861409425735,1.0164738893508911,
22590,0.010154985822737217,0.08405282348394394,0.9662001729011536,
22600,0.008740080520510674,0.07683590799570084,1.0428227186203003,
22610,-0.002176368609070778,-0.007352075539529324,0.9959693551063538,
22620,-0.014025128446519375,0.01683794893324375,1.002124547958374,
22630,0.007632049266248941,-0.002840370638296008,0.9937110543251038,
22640,0.005966732278466225,-0.010148209519684315,0.9684758186340332,
22650,-0.03264454007148743,0.02303825132548809,0.9912405610084534,
22660,0.012820103205740452,0.026166032999753952,0.9750729203224182,
22670,0.006837414111942053,0.0454196035861969,1.017936110496521,
22680,-0.03218793123960495,0.011208166368305683,1.0103695392608643,
22690,-0.005271848291158676,0.01261949259787798,0.9534562230110168,
22700,-0.011697095818817616,0.04760391265153885,0.9911957383155823,
22710,0.01842608116567135,-0.022817157208919525,1.008695363998413,
22720,-0.03082813322544098,0.06005285680294037,0.9714110493659973,
22730,0.028399989008903503,0.016616877168416977,0.9337218403816223,
22740,0.011717183515429497,-0.0015126974321901798,0.988207221031189,
22750,-0.02858671359717846,0.02677379921078682,1.034132480621338,
22760,0.015406833961606026,0.027746746316552162,0.9800333380699158,
22770,0.01708393171429634,0.02910589799284935,0.9998232126235962,
22780,0.004201006609946489,0.07127846777439117,0.9457237720489502,
22790,0.004445575177669525,0.05758611857891083,1.0415854454040527,
22800,0.02287556417286396,0.06701470166444778,0.9567553997039795,
22810,0.006059057079255581,0.04959018900990486,0.9949665069580078,
22820,0.00792884360998869,0.02894744463264942,0.9495159387588501,
22830,0.021080711856484413,0.035974547266960144,0.9826934933662415,
22840,-0.03154312074184418,0.030136166140437126,0.973048985004425,
22850,0.02083498425781727,0.021670619025826454,0.9652351140975952,
22860,0.016856228932738304,-0.007704486139118671,0.966580867767334,
22870,-0.012064995244145393,-0.0075057074427604675,0.9879792332649231,
22880,0.03357585147023201,0.003958189394325018,0.9987884163856506,
22890,0.05501601845026016,0.01966279000043869,1.0097919702529907,
22900,0.037170808762311935,0.04540816694498062,1.0362662076950073,
22910,0.003977788612246513,-0.020140821114182472,1.0071287155151367,
22920,-0.04192148894071579,0.1200568825006485,1.0004773139953613,
22930,0.06372441351413727,0.05174553394317627,1.0071097612380981,
22940,0.03358322009444237,0.030104968696832657,1.0591336488723755,
22950,-0.0006029069772921503,-0.024603156372904778,1.023003101348877,
22960,0.0007394626154564321,0.032832011580467224,0.968664288520813,
22970,0.05998997762799263,0.0224776528775692,1.0126391649246216,
22980,0.03945832699537277,0.026572585105895996,1.0666035413742065,
22990,0.03171039745211601,-0.011981073766946793,1.0381007194519043,
23000,-0.026597997173666954,-0.009781911037862301,1.0383626222610474,
23010,0.01349311787635088,0.04620784893631935,0.9852457046508789,
23020,0.028991131111979485,-0.0021633771248161793,1.0171209573745728,
23030,0.04562199488282204,0.0501568429172039,1.0397675037384033,
23040,0.06502383202314377,0.027101121842861176,1.0188274383544922,
23050,0.00833482202142477,0.024826576933264732,1.0658093690872192,
23060,0.03392985090613365,-0.014985905028879642,1.0231246948242188,
23070,0.013474851846694946,-0.029914407059550285,1.0362542867660522,
23080,0.006048604380339384,0.011732187122106552,1.0691217184066772,
23090,0.0548112615942955,0.001821495359763503,1.0641977787017822,
23100,0.02568269893527031,0.013284523971378803,1.0425958633422852,
23110,0.011855196207761765,0.031207025051116943,1.1010550260543823,
23120,0.030628759413957596,-0.005200466141104698,1.1169919967651367,
23130,0.027205485850572586,0.022539552301168442,1.109325647354126,
23140,0.03227940946817398,0.04487185552716255,1.111670970916748,
23150,0.06957840919494629,0.005792195908725262,1.065519094467163,
23160,0.05990948528051376,0.003199534257873893,1.056674599647522,
23170,0.05660165846347809,0.05744287744164467,1.0524355173110962,
23180,0.044770706444978714,0.017694417387247086,1.062572717666626,
23190,0.041041694581508636,-0.025080934166908264,1.0629615783691406,
23200,0.019672565162181854,0.00013712761574424803,1.062649130821228,
23210,0.02130875363945961,-0.018016820773482323,1.0754380226135254,
23220,0.017669910565018654,-0.033127691596746445,1.0579285621643066,
23230,0.02312326431274414,0.031308408826589584,1.1068735122680664,
23240,0.0457090362906456,0.013472377322614193,1.0545188188552856,
23250,0.0595286525785923,-0.012599089182913303,1.0632206201553345,
23260,0.04659205302596092,0.006154655944555998,1.0416618585586548,
23270,0.030459677800536156,-0.005045541562139988,1.067679762840271,
23280,0.02973182313144207,-0.006688196677714586,1.060714602470398,
23290,0.015196232125163078,-0.011428597383201122,1.0938777923583984,
23300,0.014543951489031315,0.0013173402985557914,1.0745683908462524,
23310,0.038468047976493835,-0.005666719749569893,1.0675095319747925,
23320,0.06676230579614639,-0.030287260189652443,1.0247771739959717,
23330,0.03216252103447914,0.011920833960175514,1.041815996170044,
23340,0.004417221061885357,0.0627630352973938,1.0590451955795288,
23350,0.04616757482290268,0.0039465827867388725,1.0195629596710205,
23360,0.017338715493679047,0.006432326044887304,1.000522255897522,
23370,0.010505355894565582,0.034293029457330704,1.0215163230895996,
23380,0.040286190807819366,-0.019963104277849197,1.000453233718872,
23390,0.030570264905691147,0.043705444782972336,1.0000370740890503,
23400,0.050224121659994125,0.04693127050995827,1.0168482065200806,
23410,0.06760867685079575,-0.006247104145586491,1.0069622993469238,
23420,0.029138075187802315,0.028536716476082802,1.0319243669509888,
23430,0.02576989307999611,0.02225887030363083,1.018196702003479,
23440,0.0339084155857563,-0.013052031397819519,0.993850588798523,
23450,0.0020619251299649477,-0.002793430583551526,1.0271295309066772,
23460,0.03049248270690441,-0.004814383573830128,0.9618686437606812,
23470,0.021198609843850136,-0.004498756490647793,1.0118038654327393,
23480,0.007112445309758186,0.03393154218792915,1.009178876876831,
23490,0.061745136976242065,-0.00244144257158041,1.0023506879806519,
23500,0.05435885861515999,0.03482043370604515,0.9883843064308167,
23510,0.014279305934906006,0.015834981575608253,1.013859748840332,
23520,0.022687077522277832,0.024974090978503227,0.9357196688652039,
23530,0.02035718597471714,0.040258511900901794,0.9580634832382202,
23540,0.02638152241706848,-0.015634680166840553,0.9559243321418762,
23550,0.021481400355696678,0.0005970914498902857,0.9813449382781982,
23560,0.028774701058864594,-0.00043195296893827617,0.9509790539741516,
23570,0.028629550710320473,0.029137451201677322,0.9758897423744202,
23580,0.026198621839284897,-0.011924684047698975,0.969298243522644,
23590,0.02967544086277485,-0.018068362027406693,0.9687770009040833,
23600,0.031107746064662933,0.0029131860937923193,0.9685360789299011,
23610,0.0023223410826176405,-0.03408927470445633,0.962142288684845,
23620,0.02293199859559536,-0.002286390634253621,0.9372833967208862,
23630,0.06221967935562134,-0.030243568122386932,0.9646588563919067,
23640,0.01761038787662983,0.03864521533250809,0.9583210349082947,
23650,0.039350442588329315,0.015340305864810944,0.9725536108016968,
23660,0.04050165042281151,0.022165345028042793,0.9664930105209351,
23670,0.032959818840026855,-0.006851110141724348,0.9353089928627014,
23680,0.01907718926668167,0.03324621170759201,0.994933545589447,
23690,0.01976720616221428,0.03610813245177269,0.9026837348937988,
23700,0.008033215068280697,0.05778815969824791,0.9596636295318604,
23710,0.06450016051530838,0.0428726002573967,0.9102283120155334,
23720,0.00539918290451169,-0.013071837835013866,0.9395253658294678,
23730,0.05883238464593887,-0.02437976934015751,0.9183382391929626,
23740,0.03745109215378761,-0.02009579911828041,0.9286509156227112,
23750,0.02495567873120308,-0.011497740633785725,0.9402488470077515,
23760,0.010955964215099812,-0.006587419658899307,0.9772514700889587,
23770,0.021489698439836502,0.021780984476208687,0.9769551157951355,
23780,0.013123567216098309,0.0015257784398272634,0.9864036440849304,
23790,0.02258938178420067,-0.016575735062360764,0.9469925165176392,
23800,0.0359797365963459,-0.002175102708861232,0.9563505053520203,
23810,0.02525959722697735,-0.0055343578569591045,0.9898264408111572,
23820,0.02028416283428669,0.0034715516958385706,1.0028527975082397,
23830,0.024751177057623863,-0.028433434665203094,0.9989317655563354,
23840,0.009866006672382355,-0.014434891752898693,0.9721143841743469,
23850,0.06663358956575394,-0.0131452027708292,0.9808194041252136,
23860,0.04197927191853523,0.047707971185445786,0.9920279383659363,
23870,0.028027202934026718,0.07482511550188065,1.018656849861145,
23880,-0.02150898240506649,-0.02739858813583851,1.0214807987213135,
23890,0.010179768316447735,0.06062038987874985,0.9698982834815979,
23900,0.09779313951730728,0.018310707062482834,0.9846105575561523,
23910,0.03315006569027901,-0.01043058093637228,1.0126216411590576,
23920,0.036571454256772995,-0.014945870265364647,0.9953033328056335,
23930,0.016096387058496475,0.06717022508382797,0.9809280037879944,
23940,0.026068497449159622,0.01745993085205555,0.9785245060920715,
23950,-0.003661074675619602,0.03996291384100914,0.9744100570678711,
23960,0.05615020543336868,0.021502429619431496,1.0045877695083618,
23970,0.04501744732260704,0.0018484953325241804,1.0125199556350708,
23980,0.012141693383455276,0.0016133995959535241,0.9995190501213074,
23990,0.011297570541501045,-0.04205505922436714,0.9791429042816162,
24000,0.022234423086047173,0.04212195798754692,0.9725781083106995,
24010,0.0526268370449543,0.02888541854918003,1.00577712059021,
24020,0.0406300313770771,0.006331886630505323,0.9954023957252502,
24030,0.01594685949385166,0.0009038089774549007,1.0081007480621338,
24040,0.023368967697024345,-0.013753928244113922,1.0115000009536743,
24050,0.018083905801177025,0.026331407949328423,1.0178142786026,
24060,0.05801643803715706,-0.002652553841471672,0.9894484877586365,
24070,0.020037224516272545,-0.019457301124930382,1.008057951927185,
24080,0.014131654985249043,0.011265328153967857,1.0474510192871094,
24090,0.030287176370620728,-0.010520514100790024,1.0141170024871826,
24100,0.013331567868590355,-0.011501835659146309,1.0271573066711426,
24110,0.01339622400701046,-0.023175984621047974,1.018069863319397,
24120,-0.0007670162594877183,-0.06504634767770767,1.033087968826294,
24130,-0.005838530603796244,0.022752046585083008,0.9971923828125,
24140,0.005499906837940216,0.05339153856039047,1.0178987979888916,
24150,0.05703140050172806,0.01303848810493946,0.9830384850502014,
24160,0.045806992799043655,0.026412153616547585,1.0090738534927368,
24170,0.0454205758869648,0.004932621959596872,1.046101689338684,
24180,0.03342922404408455,-0.0011168915079906583,1.0195726156234741,
24190,0.012345938943326473,0.019184745848178864,1.03239905834198,
24200,0.010940497741103172,-0.026709863916039467,1.0166562795639038,
24210,0.020546162500977516,-0.01010553166270256,1.0225493907928467,
24220,0.019087113440036774,-0.008639993146061897,1.0312150716781616,
24230,0.032591741532087326,-0.031457558274269104,0.9850521683692932,
24240,0.013051293790340424,0.011441653594374657,1.0316758155822754,
24250,0.0432872474193573,-0.010966508649289608,1.0144238471984863,
24260,0.02901259995996952,-0.006108466535806656,1.0192627906799316,
24270,0.016235562041401863,0.01264217123389244,1.0617618560791016,
24280,0.02952893078327179,-0.0050585451535880566,1.0260738134384155,
24290,0.017714552581310272,0.0011130290804430842,1.023829698562622,
24300,0.028564346954226494,-0.03256351873278618,0.9910393357276917,
24310,0.019095778465270996,-0.03484107181429863,1.0284630060195923,
24320,0.015418075025081635,0.011224446818232536,0.9821725487709045,
24330,0.02609645202755928,0.028401361778378487,1.0165401697158813,
24340,0.06245368346571922,0.09694740176200867,1.0204124450683594,
24350,0.0360545851290226,0.032776039093732834,1.056095838546753,
24360,0.013346852734684944,-0.013603206723928452,1.0127429962158203,
24370,0.00521630235016346,0.04169977456331253,1.0056612491607666,
24380,0.058673541992902756,-0.005188374314457178,0.9890663027763367,
24390,0.013035967014729977,0.04178197309374809,1.0292620658874512,
24400,0.0001248741609742865,0.014368274249136448,1.009523630142212,
24410,0.02974972128868103,-0.009578261524438858,0.9846282005310059,
24420,0.05780664086341858,0.01617700234055519,1.0241246223449707,
24430,0.034360095858573914,-0.0020091827027499676,1.019093632698059,
24440,0.021448297426104546,0.01882210373878479,0.9879187941551208,
24450,0.0250285342335701,-0.013843797147274017,0.9957399368286133,
24460,0.027137355878949165,0.017333440482616425,0.9855242371559143,
24470,0.03549940884113312,0.0004278276755940169,1.0001119375228882,
24480,0.037368908524513245,-0.004190915264189243,0.9896582365036011,
24490,0.022489359602332115,0.026925859972834587,1.0004075765609741,
24500,0.03439999371767044,0.0032875086180865765,0.9770509004592896,
24510,-0.01953284814953804,0.0020715021528303623,0.9766492247581482,
24520,0.04801703244447708,0.013109346851706505,0.99615877866745,
24530,0.0444449856877327,0.0353483147919178,1.0049076080322266,
24540,0.046443305909633636,0.022108066827058792,1.0217232704162598,
24550,0.034757908433675766,0.04606037586927414,0.976155698299408,
24560,0.019591763615608215,0.021598652005195618,0.9623396992683411,
24570,0.03115266002714634,0.0034204302355647087,0.9806690812110901,
24580,0.008854376152157784,0.006138922180980444,1.0024077892303467,
24590,0.021354734897613525,-0.018688814714550972,0.9905744194984436,
24600,0.014655876904726028,0.006725262384861708,0.9719046354293823,
24610,0.057361576706171036,-0.025402389466762543,0.9182888865470886,
24620,0.014425433240830898,0.0017966589657589793,0.9744409322738647,
24630,0.037227701395750046,0.030063167214393616,0.9327384829521179,
24640,0.030933285132050514,0.014828018844127655,0.9418282508850098,
24650,0.008878623135387897,0.017692342400550842,0.9946121573448181,
24660,0.03653239086270332,0.053953807801008224,0.9774020910263062,
24670,0.04112120717763901,-0.015580279752612114,0.9733337759971619,
24680,0.03282444179058075,-0.0099299605935812,0.9908734560012817,
24690,0.03152913600206375,0.013378836214542389,0.9844374656677246,
24700,0.04072834178805351,-0.04261312633752823,0.9860361814498901,
24710,0.032435644418001175,0.04663139209151268,1.0159841775894165,
24720,0.04570411890745163,0.02669428288936615,0.9809677004814148,
24730,0.029060931876301765,-0.008925060741603374,0.9790711998939514,
24740,0.02102406695485115,0.030458617955446243,0.9946978688240051,
24750,0.033730749040842056,0.024959370493888855,1.0127168893814087,
24760,0.0060517024248838425,0.04856889694929123,1.0238100290298462,
24770,0.04416001960635185,0.04279359430074692,1.0140020847320557,
24780,0.03773455694317818,0.005309266038239002,0.9801650047302246,
24790,-0.005085096228867769,0.005711050238460302,1.0301474332809448,
24800,-0.0072448961436748505,-0.0012157965684309602,1.0151948928833008,
24810,-0.03457454591989517,0.039527345448732376,1.052843451499939,
24820,0.014620075933635235,0.027494831010699272,1.0166200399398804,
24830,0.009014728479087353,0.05604344606399536,1.0023099184036255,
24840,0.038617052137851715,0.03505239263176918,1.03237783908844,
24850,0.05204955115914345,0.006442273035645485,1.057169795036316,
24860,0.013690699823200703,0.08388710021972656,1.0634220838546753,
24870,0.038685593754053116,0.014107797294855118,1.0540567636489868,
24880,0.019358370453119278,0.015749434009194374,1.0836389064788818,
24890,0.009371175430715084,0.003350404556840658,1.0821120738983154,
24900,0.01911189779639244,-0.009638943709433079,1.0805877447128296,
24910,0.018769100308418274,-0.02553609572350979,1.0273946523666382,
24920,-0.010394804179668427,0.01992923580110073,1.0964603424072266,
24930,0.006284664385020733,-0.001955041429027915,1.09590744972229,
24940,0.001699021435342729,-0.0034827389754354954,1.099630355834961,
24950,0.007752143312245607,-0.017325308173894882,1.0993788242340088,
24960,-0.004445676691830158,-0.004420269746333361,1.0613937377929688,
24970,0.006440347991883755,-0.005449250806123018,1.0771421194076538,
24980,0.004605223424732685,0.010531838051974773,1.0777331590652466,
24990,-0.010526306927204132,0.015189212746918201,1.0976818799972534,
25000,0.020858120173215866,-0.03278685361146927,1.0528775453567505,
25010,0.007429030258208513,-0.017896102741360664,1.0484760999679565,
25020,-0.019493194296956062,0.011134212836623192,1.0931079387664795,
25030,-0.01835598051548004,-0.010113688185811043,1.1056029796600342,
25040,-0.0209021158516407,0.03276943787932396,1.0673481225967407,
25050,-0.01603098213672638,0.025081809610128403,1.064807653427124,
25060,-0.0121793607249856,-0.0009541090112179518,1.081144094467163,
25070,-0.007407567463815212,0.02896866388618946,1.0811094045639038,
25080,0.01631186529994011,0.030558088794350624,1.0545203685760498,
25090,0.027424141764640808,0.006846371106803417,1.0376224517822266,
25100,-0.009036249481141567,0.04992274194955826,1.0238261222839355,
25110,0.009297811426222324,-0.0018478278070688248,1.0356919765472412,
25120,-0.033455248922109604,-0.01964091882109642,1.003405213356018,
25130,-0.07004229724407196,0.043975088745355606,1.0210342407226562,
25140,-0.022019870579242706,-0.02993171103298664,0.9932767748832703,
25150,-0.054800841957330704,-0.02410172112286091,1.0448404550552368,
25160,-0.012698682025074959,-0.016484156250953674,1.0235295295715332,
25170,-0.017209067940711975,0.033644091337919235,1.0290886163711548,
25180,-0.018867498263716698,0.06739559769630432,1.040208339691162,
25190,-0.01752035692334175,-0.032893624156713486,0.9953345060348511,
25200,-0.014306136406958103,0.020819365978240967,0.9842297434806824,
25210,-0.004098523873835802,-0.007930691353976727,1.0407849550247192,
25220,-0.06362815946340561,0.044429462403059006,1.059699296951294,
25230,0.019117753952741623,0.005569262895733118,1.0030103921890259,
25240,-0.0121994037181139,0.002724918071180582,1.0252591371536255,
25250,-0.02500397339463234,0.005699880886822939,1.015672206878662,
25260,-0.035489071160554886,0.05831209570169449,1.011733889579773,
25270,-0.021222295239567757,0.01710955798625946,1.0159786939620972,
25280,-0.03406044468283653,0.03454667702317238,0.9824023842811584,
25290,-0.005982453469187021,0.009630073793232441,0.99555903673172,
25300,-0.015198927372694016,0.00747636565938592,1.01033353805542,
25310,-0.035201579332351685,-0.035292454063892365,1.0381709337234497,
25320,-0.027795692905783653,0.05586947128176689,1.0128095149993896,
25330,-0.020263807848095894,0.019462542608380318,1.0170202255249023,
25340,-0.033691782504320145,0.008117971010506153,1.0106821060180664,
25350,-0.03638588264584541,0.0260811448097229,0.9970894455909729,
25360,-0.048496097326278687,0.01876826211810112,0.9886939525604248,
25370,-0.0064452639780938625,0.011139537207782269,0.9763167500495911,
25380,-0.01841053180396557,0.037458065897226334,0.9712665677070618,
25390,0.008954224176704884,-0.011715102009475231,1.0491901636123657,
25400,-0.035442911088466644,0.07205875962972641,0.9946324229240417,
25410,-0.018873771652579308,-0.0060114446096122265,0.9961513876914978,
25420,-0.04655808210372925,-0.010161684826016426,1.0345975160598755,
25430,-0.03395732864737511,-0.014384733512997627,0.9939709305763245,
25440,-0.016976680606603622,0.01073263306170702,0.9864426851272583,
25450,0.006897266488522291,0.0451703779399395,0.9823567271232605,
25460,-0.005974357016384602,0.09762822836637497,1.0079188346862793,
25470,-0.03979004546999931,-0.001217690296471119,0.9885448217391968,
25480,-0.034414853900671005,0.025259090587496758,0.961791455745697,
25490,0.001983435358852148,-0.04449610039591789,0.9579216837882996,
25500,-0.016565699130296707,-0.006790685001760721,0.9757657051086426,
25510,-0.023039452731609344,0.005310061387717724,0.9529931545257568,
25520,-0.009537353180348873,0.029378492385149002,0.9681828022003174,
25530,0.007464288733899593,0.007721227128058672,0.9685507416725159,
25540,-0.03018302284181118,-0.026150096207857132,0.9972238540649414,
25550,-0.03501330688595772,0.04161413758993149,0.9991982579231262,
25560,0.013325866311788559,-0.020643070340156555,0.9680485129356384,
25570,-0.0676075667142868,-0.004790282342582941,1.0004571676254272,
25580,-0.01661941409111023,-0.00878173392266035,0.9950332641601562,
25590,-0.04106137901544571,0.007273840717971325,1.0031580924987793,
25600,-0.0376783050596714,0.009550451301038265,1.0202304124832153,
25610,0.0070923021994531155,0.02816854603588581,0.9830172061920166,
25620,0.02860666625201702,-0.00047683133743703365,0.9980812072753906,
25630,-0.022128380835056305,-0.0006814008229412138,1.0218766927719116,
25640,-0.058404989540576935,-0.007273592986166477,1.0195950269699097,
25650,-0.037461087107658386,-0.013462190516293049,1.0234602689743042,
25660,-0.053454555571079254,0.11019600927829742,1.0244171619415283,
25670,-0.029373329132795334,-0.005534154362976551,0.9951799511909485,
25680,-0.023944169282913208,0.006635591853410006,1.046035885810852,
25690,-0.01935836486518383,-0.019377168267965317,0.9805558919906616,
25700,-0.04309224337339401,-0.009510067291557789,1.0043233633041382,
25710,-0.02337450534105301,0.03902168199419975,0.9909650087356567,
25720,-0.046650826930999756,-0.01296121347695589,1.022728681564331,
25730,-0.04405965283513069,0.01613936945796013,1.0414760112762451,
25740,0.0006727990694344044,0.009954778477549553,0.9569721221923828,
25750,-0.03319988027215004,-0.04043583944439888,0.9937654137611389,
25760,0.0009095973218791187,-0.031970057636499405,0.9753795862197876,
25770,-0.028507759794592857,0.02360423468053341,1.000848412513733,
25780,-0.011688093654811382,0.01648544892668724,0.9977623820304871,
25790,-0.02044614590704441,0.04789961874485016,0.9894616603851318,
25800,-0.007879846729338169,-0.02043760195374489,0.9529013633728027,
25810,-0.03391299769282341,-0.014071249403059483,0.9942517280578613,
25820,-0.016196340322494507,0.03769472613930702,0.9655942916870117,
25830,-0.03302142396569252,0.009753750637173653,1.0010534524917603,
25840,-0.038675785064697266,-0.02227202244102955,1.036651611328125,
25850,-0.03402700647711754,-0.0021028127521276474,1.011616587638855,
25860,-0.029312899336218834,-0.013815408572554588,1.0185284614562988,
25870,-0.04017077386379242,0.0160271767526865,0.9834185838699341,
25880,-0.0322711244225502,0.00675850547850132,1.0102382898330688,
25890,-0.016317078843712807,-0.02943219430744648,0.9638634324073792,
25900,-0.04218609258532524,-0.028934938833117485,0.9515277147293091,
25910,-0.011722713708877563,-0.021443551406264305,0.9690812826156616,
25920,-0.0185349490493536,-0.054304338991642,0.9356405735015869,
25930,-0.0851152092218399,0.017040736973285675,1.0156338214874268,
25940,-0.062167081981897354,0.04024988412857056,0.9615410566329956,
25950,-0.041888076812028885,0.001378313754685223,0.9438652992248535,
25960,-0.014605103991925716,0.019822891801595688,0.9582247734069824,
25970,0.013050752691924572,-0.013423865661025047,0.9840033054351807,
25980,-0.054758649319410324,0.03393837809562683,0.9807208180427551,
25990,-0.004459147807210684,0.01343698799610138,1.0326639413833618,
26000,0.016004707664251328,0.05921339616179466,1.0434759855270386,
26010,-0.040150418877601624,0.02754669450223446,1.0231528282165527,
26020,-0.05831298977136612,0.03567281365394592,1.0353748798370361,
26030,-0.018955228850245476,0.008705222979187965,0.9985422492027283,
26040,-0.040579453110694885,0.021023111417889595,1.0075799226760864,
26050,-0.03673388063907623,0.05590171739459038,1.0345648527145386,
26060,-0.00082714285235852,0.05388551950454712,0.9835877418518066,
26070,-0.009993304498493671,0.044571585953235626,1.0404410362243652,
26080,-0.033595114946365356,0.009314559400081635,1.0547676086425781,
26090,-0.04115444794297218,0.037288058549165726,1.0141078233718872,
26100,0.0029908253345638514,0.019957713782787323,1.0046199560165405,
26110,-0.02021331526339054,0.0786990374326706,1.0294219255447388,
26120,-0.01945173554122448,0.0923769623041153,1.0491292476654053,
26130,-0.00712730223312974,0.02259877882897854,0.999371349811554,
26140,-0.05129459500312805,0.015441975556313992,1.033630132675171,
26150,-0.04542743042111397,0.028216766193509102,1.0587470531463623,
26160,-0.03513370826840401,0.04898470640182495,1.0563546419143677,
26170,0.010664642788469791,0.047840237617492676,1.0314065217971802,
26180,-0.025064190849661827,0.052374351769685745,1.0139533281326294,
26190,-0.032689645886421204,0.07766970992088318,1.079776644706726,
26200,-0.04583795368671417,0.07260603457689285,1.053227424621582,
26210,-0.05283750966191292,0.06063162907958031,1.0314345359802246,
26220,-0.025516990572214127,0.03766647353768349,1.0137485265731812,
26230,-0.049887560307979584,0.06675726175308228,1.0284717082977295,
26240,-0.032841749489307404,0.0354008786380291,1.0429661273956299,
26250,-0.02681637927889824,0.04920800402760506,1.0338090658187866,
26260,-0.05210866779088974,0.03160543367266655,1.077101707458496,
26270,-0.06908653676509857,0.04223291203379631,1.0646167993545532,
26280,-0.04453299939632416,0.0615791454911232,1.019492745399475,
26290,-0.03897538036108017,0.019260166212916374,1.001473307609558,
26300,-0.057257361710071564,0.0814463421702385,1.071860432624817,
26310,-0.0393461138010025,0.03824663907289505,1.07719087600708,
26320,-0.04940002039074898,0.043090660125017166,1.0115190744400024,
26330,-0.03459624573588371,0.05681692808866501,1.0023458003997803,
26340,-0.027687758207321167,0.006363739725202322,1.0253151655197144,
26350,-0.06838160753250122,0.09551791101694107,0.9765859842300415,
26360,0.01558209490031004,0.07691746950149536,0.9511529803276062,
26370,-0.0358138270676136,0.04933033138513565,1.0161319971084595,
26380,-0.0562889389693737,0.03808361291885376,1.023939609527588,
26390,-0.024415960535407066,0.06497722864151001,0.982060432434082,
26400,-0.021902525797486305,0.03761965408921242,1.013893723487854,
26410,-0.05908788740634918,0.05222219228744507,1.0532124042510986,
26420,-0.023727482184767723,0.04812309145927429,1.0056467056274414,
26430,-0.07309620082378387,0.09368898719549179,0.9856303930282593,
26440,-0.024041499942541122,0.06606622785329819,0.9901779294013977,
26450,-0.025435389950871468,0.06654065102338791,1.016059398651123,
26460,-0.011827054433524609,0.12445580214262009,1.0401254892349243,
26470,-0.031800493597984314,0.043129824101924896,1.0113856792449951,
26480,-0.080107182264328,0.06486160308122635,1.006491780281067,
26490,-0.0314544141292572,0.0749526172876358,1.0210367441177368,
26500,-0.01141886506229639,0.09956496208906174,0.9787009358406067,
26510,-0.015149646438658237,0.02308003604412079,0.9927239418029785,
26520,-0.018189217895269394,0.03341569006443024,1.014752984046936,
26530,-0.02229127287864685,0.06760545074939728,0.9298517107963562,
26540,-0.01933400146663189,0.07660508155822754,1.011270523071289,
26550,-0.021459275856614113,0.05336872860789299,1.0223394632339478,
26560,-0.02525433525443077,0.10012675076723099,0.9894827008247375,
26570,-0.06732248514890671,0.0682772770524025,1.0098298788070679,
26580,-0.09150100499391556,0.0874803364276886,0.9898264408111572,
26590,0.003540452802553773,0.06550775468349457,0.9802769422531128,
26600,-0.04258938878774643,0.057368338108062744,1.069501519203186,
26610,-0.0389874242246151,0.03460925444960594,0.984794020652771,
26620,-0.01887928880751133,0.11491832882165909,0.964066743850708,
26630,-0.015623606741428375,0.060000937432050705,0.9819048047065735,
26640,-0.0898720845580101,0.06636078655719757,0.9911215305328369,
26650,-0.022817982360720634,0.03683439642190933,0.9703798890113831,
26660,-0.04905328527092934,0.020761195570230484,1.0088101625442505,
26670,-0.03298317641019821,0.021984383463859558,1.0038000345230103,
26680,-0.06939690560102463,0.07031697034835815,0.992302417755127,
26690,-0.08390183746814728,0.06663007289171219,0.997891366481781,
26700,-0.039296772330999374,0.05810508877038956,0.9772765636444092,
26710,-0.018174197524785995,0.1340402066707611,1.0313338041305542,
26720,-0.03448370099067688,0.05165407061576843,1.0189048051834106,
26730,-0.04112372174859047,0.015900028869509697,0.9903071522712708,
26740,-0.009591488167643547,0.1219623014330864,0.9792606830596924,
26750,-0.018056519329547882,0.03168370574712753,0.9597113132476807,
26760,-0.06783195585012436,0.04705743119120598,1.0029892921447754,
26770,-0.02212565951049328,0.03989458829164505,0.9559956789016724,
26780,-0.03562517464160919,0.032910075038671494,0.9208167195320129,
26790,-0.07466708868741989,0.02923186495900154,1.0061585903167725,
26800,-0.014504938386380672,0.012745187617838383,0.9840026497840881,
26810,-0.03342222794890404,0.07225579768419266,0.9148083329200745,
26820,-0.021116619929671288,0.0989275872707367,0.9688990712165833,
26830,-0.032627835869789124,0.05894577503204346,1.0067695379257202,
26840,-0.014847741462290287,-0.003951867576688528,0.9807100296020508,
26850,-0.07382087409496307,0.04928519204258919,1.0512149333953857,
26860,-0.02671794593334198,0.04440486058592796,0.9803603291511536,
26870,-0.019114714115858078,0.03826871141791344,0.9934818148612976,
26880,-0.047627925872802734,0.014132178388535976,1.0402604341506958,
26890,-0.0636124387383461,0.062077805399894714,1.040116548538208,
26900,-0.018866926431655884,0.04914293438196182,0.9770704507827759,
26910,-0.03715866431593895,0.07244067639112473,1.0196928977966309,
26920,-0.013596528209745884,0.011965113691985607,0.9822078943252563,
26930,-0.03469454497098923,0.037291403859853745,1.0045044422149658,
26940,-0.021656213328242302,0.052611157298088074,0.9990881085395813,
26950,-0.026522457599639893,0.025762729346752167,1.014305830001831,
26960,-0.06089314445853233,0.10036816447973251,1.000702142715454,
26970,-0.007776875514537096,0.04781694710254669,0.9782817959785461,
26980,-0.06421127170324326,0.10563831031322479,1.0510270595550537,
26990,-0.038955576717853546,0.015108673833310604,1.0091196298599243,
27000,-0.022063063457608223,0.027607237920165062,0.9948601722717285,
27010,-0.025183144956827164,0.0237954743206501,0.9811870455741882,
27020,-0.04617816582322121,0.08286836743354797,0.9902242422103882,
27030,-0.08170821517705917,0.04682821407914162,0.9924404621124268,
27040,-0.038689855486154556,0.030347224324941635,0.9777330756187439,
27050,-0.02867712825536728,0.030573878437280655,1.0114325284957886,
27060,-0.016585752367973328,0.03042779490351677,1.0079323053359985,
27070,-0.008969219401478767,0.11540345847606659,1.0276727676391602,
27080,-0.07278140634298325,0.04389476403594017,1.0031086206436157,
27090,-0.05974444001913071,0.08642059564590454,0.9673942923545837,
27100,0.009311268106102943,0.07509026676416397,0.9969749450683594,
27110,-0.02336185611784458,0.07274137437343597,1.0406475067138672,
27120,-0.01076862495392561,0.01450684666633606,0.9976024627685547,
27130,-0.0043623968958854675,0.07565721124410629,0.9715455770492554,
27140,-0.009438322857022285,0.032490380108356476,1.0064254999160767,
27150,-0.06962564587593079,0.14914682507514954,0.9972150921821594,
27160,-0.024582872167229652,0.03965985029935837,0.968841552734375,
27170,-0.013547969982028008,0.0544101856648922,1.0326861143112183,
27180,0.002690704772248864,0.03885858133435249,0.9767996072769165,
27190,-0.0028215725906193256,0.05665258318185806,0.9455780386924744,
27200,-0.036509398370981216,0.04298960044980049,1.0316479206085205,
27210,-0.04186682030558586,0.06323694437742233,1.0383105278015137,
27220,-0.011707310564815998,0.04331064596772194,0.9799637198448181,
27230,-0.03338387981057167,0.05244849994778633,1.0176340341567993,
27240,-0.009022671729326248,0.06544706225395203,1.0452542304992676,
27250,0.03411639854311943,0.06907810270786285,0.9847443699836731,
27260,-0.021624645218253136,0.06809991598129272,1.0389337539672852,
27270,0.02213372103869915,0.05337970331311226,1.0065128803253174,
27280,-0.001426876988261938,0.05621442198753357,1.0265166759490967,
27290,-0.01639270968735218,0.039630793035030365,1.030485987663269,
27300,0.015635943040251732,0.03484641760587692,1.002116322517395,
27310,-0.023776791989803314,0.07003260403871536,1.046990156173706,
27320,0.015612906776368618,0.02423202246427536,0.9998934864997864,
27330,0.013502441346645355,0.0321277379989624,1.014330506324768,
27340,0.01392432302236557,0.0999523475766182,1.0125534534454346,
27350,0.0021971489768475294,0.027970103546977043,1.02370023727417,
27360,-0.02362348511815071,0.01539209671318531,1.0651642084121704,
27370,-0.005195658188313246,0.03175393119454384,1.0537211894989014,
27380,-0.0073604891076684,0.04375384375452995,1.0822097063064575,
27390,0.008645949885249138,0.0249986182898283,1.029910922050476,
27400,0.003474620170891285,0.023933127522468567,1.0201553106307983,
27410,0.02478695847094059,0.024607516825199127,1.02495539188385,
27420,-0.007353384979069233,0.028573794290423393,1.0849753618240356,
27430,0.008211503736674786,0.05590350925922394,1.0661927461624146,
27440,0.04036259278655052,0.027544137090444565,1.017298936843872,
27450,0.030470941215753555,0.062049318104982376,1.060121774673462,
27460,0.01403603795915842,0.04894225671887398,1.07756507396698,
27470,0.0008434756891801953,0.04304947331547737,1.0820375680923462,
27480,0.02326776459813118,0.025647686794400215,1.039792776107788,
27490,0.02107490599155426,0.040737271308898926,1.0314496755599976,
27500,0.009947557002305984,0.03794005513191223,1.0683270692825317,
27510,0.036864105612039566,0.006853793282061815,1.05180025100708,
27520,-0.0008316488820128143,0.0875936821103096,1.0838623046875,
27530,0.0386846698820591,0.09367578476667404,1.0587712526321411,
27540,0.025551684200763702,0.02698817104101181,1.0706549882888794,
27550,0.00744453864172101,0.02605457603931427,1.0799779891967773,
27560,0.03984106704592705,0.026686768978834152,1.0286322832107544,
27570,0.04091591760516167,0.025136711075901985,1.041456699371338,
27580,0.03839816525578499,0.029949625954031944,1.0566188097000122,
27590,0.01407221332192421,0.07293050736188889,1.1022133827209473,
27600,0.06326507776975632,0.12481442093849182,1.0809751749038696,
27610,0.08624187856912613,0.07235933095216751,1.038370132446289,
27620,0.05000973120331764,0.06776825338602066,1.0583256483078003,
27630,0.02963537722826004,0.09427236765623093,1.1087085008621216,
27640,0.04726835712790489,0.056275442242622375,1.0890264511108398,
27650,0.05847378075122833,0.02378818392753601,1.0299769639968872,
27660,0.03291037306189537,0.031083278357982635,1.0605076551437378,
27670,-0.0005526753375306726,0.06615595519542694,1.0927948951721191,
27680,0.030142007395625114,0.010195702314376831,1.0569595098495483,
27690,0.022790944203734398,0.007680154405534267,1.0655241012573242,
27700,0.02763204090297222,0.026271842420101166,1.0049245357513428,
27710,0.03315204754471779,0.043758805841207504,1.061726689338684,
27720,0.03298497572541237,0.03409126400947571,1.059704303741455,
27730,0.02535748854279518,0.012999185360968113,1.0585829019546509,
27740,0.0500263050198555,0.056246425956487656,1.008731722831726,
27750,0.04795178771018982,0.05803786963224411,1.0528334379196167,
27760,0.06161223351955414,0.038928765803575516,1.0136831998825073,
27770,0.06437502056360245,0.024025147780776024,1.036495566368103,
27780,-0.00465410714969039,0.07085004448890686,1.0674850940704346,
27790,0.023510096594691277,0.03501148521900177,1.0054091215133667,
27800,0.02436547353863716,0.04149356856942177,1.0276212692260742,
27810,0.03784207999706268,0.06571679562330246,1.027379035949707,
27820,0.035350970923900604,0.07708179950714111,1.0508754253387451,
27830,0.059839095920324326,0.03440576791763306,1.045898675918579,
27840,0.039565976709127426,0.054645080119371414,1.04927396774292,
27850,0.02408871054649353,0.04557802528142929,1.0492674112319946,
27860,0.06883271038532257,0.041528861969709396,0.9747309684753418,
27870,0.025430453941226006,0.0934232622385025,1.0428223609924316,
27880,0.036265235394239426,0.04442838579416275,0.9996215105056763,
27890,0.03732088580727577,0.023430529981851578,0.9948588609695435,
27900,0.02746962010860443,0.10220351815223694,0.9659937620162964,
27910,0.06643004715442657,0.08032035082578659,0.9533186554908752,
27920,-0.00347116868942976,0.07850491255521774,0.9877736568450928,
27930,0.04912815988063812,0.05925498902797699,0.981140673160553,
27940,0.0321284718811512,0.025527305901050568,0.9554769992828369,
27950,0.01706043630838394,0.04507534205913544,0.9525461792945862,
27960,0.059612635523080826,0.0732899084687233,0.9702129364013672,
27970,0.026485856622457504,0.06052165478467941,0.9891229271888733,
27980,0.011999444104731083,0.0841975212097168,0.9993919730186462,
27990,0.05725591257214546,0.062136486172676086,0.9745084047317505,
28000,0.010208499617874622,0.038151662796735764,0.9906770586967468,
28010,0.014055488631129265,0.037355951964855194,0.9787160158157349,
28020,0.043805260211229324,0.02578931488096714,0.9508004784584045,
28030,-0.009757705964148045,0.04835118353366852,0.9663111567497253,
28040,0.02347666770219803,0.012355807237327099,0.991344690322876,
28050,0.04461986571550369,0.09868209809064865,0.994779109954834,
28060,0.02376195415854454,0.059563975781202316,1.0238993167877197,
28070,0.026080315932631493,0.05805118381977081,0.9795059561729431,
28080,0.02059558406472206,0.07391153275966644,0.9946679472923279,
28090,0.036281950771808624,0.06504612416028976,0.9870049953460693,
28100,0.05039535462856293,0.02564953826367855,0.9818809032440186,
28110,0.06294267624616623,0.09783764183521271,1.0209555625915527,
28120,0.010648158378899097,0.07230035215616226,0.9560127854347229,
28130,0.060611791908741,0.08914634585380554,0.9372028708457947,
28140,0.003064739517867565,0.05499562248587608,0.9532883763313293,
28150,0.005899494048207998,0.05742475762963295,0.9243468642234802,
28160,0.011964155361056328,0.052881330251693726,0.9544821381568909,
28170,0.04155946150422096,0.03823770210146904,0.9585561156272888,
28180,0.012826010584831238,0.060468778014183044,0.9641428589820862,
28190,0.061761535704135895,0.04160214960575104,0.9570562839508057,
28200,0.02535989321768284,0.05036493390798569,1.0520697832107544,
28210,0.030203117057681084,0.11446868628263474,0.9822450876235962,
28220,0.03211153671145439,0.11281486600637436,1.017942190170288,
28230,0.03402430936694145,0.08948849886655807,1.03364098072052,
28240,0.055449534207582474,0.07719364017248154,1.0337237119674683,
28250,0.04725823551416397,0.03353814780712128,1.0345072746276855,
28260,0.04598301649093628,0.0707835778594017,0.9693083167076111,
28270,0.008791607804596424,0.04616211727261543,1.0192344188690186,
28280,0.04797731339931488,0.04174964874982834,0.9968387484550476,
28290,0.028081154450774193,0.015878263860940933,0.9751755595207214,
28300,0.0245861504226923,0.0374971367418766,0.9803664684295654,
28310,0.03846095874905586,0.03086494654417038,1.0142303705215454,
28320,0.023898903280496597,0.01324805524200201,0.9750029444694519,
28330,0.03711141273379326,-0.01122808363288641,0.981841504573822,
28340,0.006636379286646843,0.08121005445718765,0.9912748336791992,
28350,0.07924749702215195,0.019244210794568062,0.9743221402168274,
28360,0.0014407626586034894,0.09593786299228668,0.9989098906517029,
28370,0.07834089547395706,0.03245687484741211,0.9938934445381165,
28380,0.04069046303629875,0.009358624927699566,1.0017181634902954,
28390,0.03246946260333061,0.04120549559593201,1.0083831548690796,
28400,0.057010259479284286,0.03659174591302872,1.00477933883667,
28410,0.02714286930859089,0.0019531305879354477,0.9802278280258179,
28420,0.03257274255156517,0.043553344905376434,0.9964843392372131,
28430,0.03729502856731415,0.020977238193154335,1.0058780908584595,
28440,0.016700880602002144,0.02242538519203663,1.059517502784729,
28450,0.07584184408187866,0.03906736895442009,0.9807376861572266,
28460,0.029884282499551773,0.004085238557308912,1.0032061338424683,
28470,0.04094458743929863,0.005217513535171747,1.003515362739563,
28480,0.017308885231614113,-0.012198708020150661,1.035327672958374,
28490,0.009692848660051823,0.028758283704519272,1.009398341178894,
28500,0.07549689710140228,0.04052566736936569,1.008484959602356,
28510,0.04467295482754707,0.03071426786482334,1.0670255422592163,
28520,0.05087367445230484,0.0251409113407135,1.0428237915039062,
28530,0.0312404353171587,-0.004917780868709087,1.0538207292556763,
28540,0.04210735484957695,0.0028763217851519585,1.0610216856002808,
28550,0.02374015934765339,0.024680256843566895,1.099549412727356,
28560,0.0786784291267395,0.035402826964855194,1.0377287864685059,
28570,0.05252132564783096,0.019401315599679947,1.0883868932724,
28580,0.04376809671521187,-0.005463864654302597,1.0737861394882202,
28590,0.014636946842074394,-0.013117137365043163,1.0995787382125854,
28600,0.03982168063521385,-0.028408292680978775,1.0684177875518799,
28610,0.06541004031896591,-0.0499090813100338,1.0353715419769287,
28620,0.03854601830244064,0.009917703457176685,1.04779052734375,
28630,0.026448220014572144,-0.016080176457762718,1.0733095407485962,
28640,0.01822519861161709,-0.00372845190577209,1.0716079473495483,
28650,0.029031824320554733,-0.039012737572193146,1.0624356269836426,
28660,0.033725306391716,-0.04490794241428375,1.052674651145935,
28670,0.01791374199092388,-0.032569464296102524,1.0757765769958496,
28680,0.05192547291517258,-0.04352068901062012,1.0337252616882324,
28690,0.05036032944917679,-0.03942318260669708,1.0245240926742554,
28700,0.010793150402605534,-0.03252219408750534,1.0459352731704712,
28710,-0.009546873159706593,0.021302146837115288,1.083597183227539,
28720,0.01947207748889923,-0.04385649785399437,1.083861231803894,
28730,0.022423097863793373,-0.039015766233205795,1.0522739887237549,
28740,0.02805236540734768,-0.014201984740793705,1.0589332580566406,
28750,0.04583873972296715,-0.04217465594410896,1.0386228561401367,
28760,0.0323200449347496,-0.0023568577598780394,1.0283372402191162,
28770,0.051451750099658966,-0.007725514937192202,1.0206961631774902,
28780,0.061478909105062485,-0.049142155796289444,1.0193164348602295,
28790,0.05729632452130318,0.04552312567830086,1.021362543106079,
28800,0.04115283489227295,0.03620290011167526,1.0408987998962402,
28810,0.004031057935208082,0.014214413240551949,1.0657575130462646,
28820,0.020037561655044556,-0.007472984492778778,1.022934079170227,
28830,-0.007266628090292215,0.00486723193898797,0.989592969417572,
28840,0.050846852362155914,-0.039436135441064835,0.964526355266571,
28850,0.020055711269378662,0.0023276496212929487,0.9773364067077637,
28860,0.04277987405657768,-0.06398589164018631,0.9864903092384338,
28870,0.026915721595287323,-0.02777848206460476,1.0185624361038208,
28880,0.04735118895769119,-0.03561194986104965,0.9935323596000671,
28890,0.03694867715239525,-0.03126893937587738,0.9565898776054382,
28900,0.0261879600584507,-0.03776121884584427,0.9855732321739197,
28910,0.047142669558525085,-0.02679949626326561,0.9856327772140503,
28920,0.057849038392305374,0.001883221440948546,0.9857668876647949,
28930,0.02299254573881626,-0.015528284944593906,0.9841691851615906,
28940,0.01730005070567131,0.0501633882522583,0.960541844367981,
28950,0.08210371434688568,-0.012532168999314308,0.971153736114502,
28960,0.005341670475900173,0.020921964198350906,0.9646444916725159,
28970,0.06044809892773628,-0.016653217375278473,0.9660418033599854,
28980,0.027845876291394234,-0.008639409206807613,0.9806082248687744,
28990,0.049553282558918,0.011977321468293667,0.9590873718261719,
29000,0.06929219514131546,0.017517711967229843,0.9338882565498352,
29010,0.050635889172554016,-0.05414653196930885,0.9682923555374146,
29020,-0.018511665984988213,-0.01678268238902092,0.9581161141395569,
29030,0.09981369227170944,-0.018012817949056625,0.9477028250694275,
29040,0.029668593779206276,-0.01657022163271904,0.9780107736587524,
29050,0.05656120181083679,-0.047462742775678635,0.9810971617698669,
29060,0.038420628756284714,-0.043121423572301865,1.015196442604065,
29070,0.06050395220518112,-0.054470982402563095,0.9674338698387146,
29080,0.033309295773506165,-0.017697997391223907,0.9994187951087952,
29090,0.04539480805397034,-0.03254754841327667,1.003737211227417,
29100,0.022340664640069008,-0.05712294951081276,0.9977068305015564,
29110,0.014228704385459423,0.009980669245123863,1.0185519456863403,
29120,0.07311396300792694,-0.00026389071717858315,1.0199514627456665,
29130,0.05364011973142624,0.043856751173734665,1.0416396856307983,
29140,0.07108381390571594,0.016452036798000336,1.038696527481079,
29150,0.07212243974208832,-0.02763580158352852,1.0095946788787842,
29160,0.030586449429392815,0.004889036528766155,1.0210891962051392,
29170,0.024463698267936707,-0.06063981354236603,1.0152777433395386,
29180,0.019874557852745056,0.031089790165424347,1.0188883543014526,
29190,0.049040377140045166,0.021012043580412865,1.018560528755188,
29200,0.044154126197099686,0.008616156876087189,1.011055588722229,
29210,0.06173824891448021,0.008283164352178574,1.002218246459961,
29220,0.09631042182445526,-0.027487970888614655,1.0016957521438599,
29230,0.040327511727809906,0.004704837687313557,1.0294595956802368,
29240,0.030349550768733025,-0.015137739479541779,1.0467867851257324,
29250,0.02281373366713524,-0.021487848833203316,1.0408776998519897,
29260,0.016635535284876823,0.01166041661053896,1.0241793394088745,
29270,0.0610753670334816,-0.06534657627344131,0.9724547266960144,
29280,0.0640212818980217,0.04390913248062134,0.9912696480751038,
29290,0.06731408834457397,0.006834810599684715,1.029072880744934,
29300,0.048079706728458405,-0.025126824155449867,1.0171388387680054,
29310,0.02757570706307888,-0.023070158436894417,1.0091074705123901,
29320,0.033570922911167145,-0.025838755071163177,1.0164194107055664,
29330,0.02500302717089653,-0.0007866206578910351,1.0441383123397827,
29340,0.03291638568043709,-0.012097283266484737,1.0380027294158936,
29350,0.04552105441689491,-0.01992528885602951,0.9962730407714844,
29360,0.013130012899637222,-0.029012808576226234,0.984560489654541,
29370,0.038047078996896744,-0.03397000953555107,1.0446361303329468,
29380,0.021097179502248764,0.012847444973886013,1.0127872228622437,
29390,0.04303432255983353,0.059285469353199005,0.9861393570899963,
29400,0.06333667784929276,0.04563381150364876,0.978731095790863,
29410,0.017728356644511223,0.018663296476006508,1.0060497522354126,
29420,0.02882952243089676,0.023887891322374344,0.9885658025741577,
29430,0.062353603541851044,0.04275282844901085,0.9797381162643433,
29440,0.05042913928627968,-0.060549937188625336,0.9909005761146545,
29450,0.02779846265912056,0.009313809685409069,0.9983916282653809,
29460,0.020549967885017395,-0.010180698707699776,0.9889885783195496,
29470,0.04913930222392082,0.011227813549339771,1.000491976737976,
29480,0.05437103286385536,0.04469788819551468,1.0374813079833984,
29490,0.028885744512081146,-0.021195383742451668,1.0117161273956299,
29500,0.022986477240920067,0.023312831297516823,0.9660452604293823,
29510,0.07283924520015717,0.012147370725870132,0.9837923645973206,
29520,0.010762588120996952,0.027241870760917664,1.010278582572937,
29530,0.04013030603528023,0.015478900633752346,0.9952970743179321,
29540,0.04043811932206154,-0.03297195956110954,1.0122870206832886,
29550,0.025953030213713646,-0.024865277111530304,0.9868711829185486,
29560,0.03679366782307625,-0.003225900698453188,0.9910189509391785,
29570,0.03340509906411171,-0.027382921427488327,0.9954590797424316,
29580,0.04067937657237053,-0.03977522999048233,0.997628927230835,
29590,0.017884911969304085,0.07543664425611496,0.993644118309021,
29600,0.07640915364027023,0.031938277184963226,0.9935598969459534,
29610,0.04497174546122551,0.04771905019879341,1.0234912633895874,
29620,0.02844533510506153,-0.00498999934643507,1.0667531490325928,
29630,-0.011204451322555542,-0.029363855719566345,1.0459558963775635,
29640,-0.0072905560955405235,0.005841608624905348,1.0227086544036865,
29650,0.020447716116905212,-0.02692558616399765,1.0457640886306763,
29660,0.002751485211774707,0.00817627552896738,1.0086002349853516,
29670,0.04229922965168953,0.009799258783459663,1.0120389461517334,
29680,0.03189514949917793,-0.03450360894203186,1.061777114868164,
29690,0.027181467041373253,0.01907208375632763,1.0091623067855835,
29700,0.01939631812274456,-0.00421912781894207,1.016947627067566,
29710,-0.0213705375790596,-0.009689523838460445,1.035452961921692,
29720,-0.010899074375629425,0.01047149021178484,1.0087465047836304,
29730,0.028922269120812416,-0.058122340589761734,0.9963545799255371,
29740,0.0009368536993861198,-0.03440362587571144,1.0295406579971313,
29750,-0.004307977855205536,-0.009194379672408104,1.0441564321517944,
29760,0.018709678202867508,-0.06105731427669525,1.0566661357879639,
29770,0.029013071209192276,0.01773987151682377,1.0627821683883667,
29780,0.015866339206695557,0.043761808425188065,1.0615267753601074,
29790,0.027120593935251236,0.006255642045289278,1.0425100326538086,
29800,-0.007715633139014244,-0.022463062778115273,1.0769811868667603,
29810,-0.011745952069759369,-0.0031881032045930624,1.0299707651138306,
29820,0.007938400842249393,-0.04087406024336815,1.0704399347305298,
29830,-0.0016528177075088024,-0.021091338247060776,1.067501187324524,
29840,0.019327854737639427,-0.04180985689163208,1.0317144393920898,
29850,-0.01601398177444935,-0.001931751728989184,1.091725468635559,
29860,0.002618820872157812,-0.004748482257127762,1.0573700666427612,
29870,0.013370977714657784,0.002451876178383827,1.0797876119613647,
29880,-0.014718599617481232,0.04204683378338814,1.056822657585144,
29890,-0.0292047206312418,0.001998048508539796,1.051511526107788,
29900,0.00365771958604455,-0.05024769529700279,1.0546071529388428,
29910,0.00025437583099119365,-0.0307052880525589,1.0641498565673828,
29920,-0.00651306938380003,0.022741971537470818,1.051842451095581,
29930,-0.014373159036040306,-0.007310996763408184,1.0727840662002563,
29940,-0.005679578986018896,0.0020778479520231485,1.0374940633773804,
29950,-0.0134073281660676,-0.010358510538935661,1.0799460411071777,
29960,-0.0007207843591459095,-0.021732578054070473,1.069265604019165,
29970,-0.02092580311000347,-0.030834341421723366,1.0445853471755981,
29980,-0.0205977875739336,0.009481728076934814,1.0844653844833374,
29990,0.03229353576898575,-0.030364522710442543,1.0781804323196411,
30000,-0.006745979655534029,0.03000016324222088,1.0765639543533325,
30010,-0.012927536852657795,-0.010505836457014084,1.060325264930725,
30020,-0.03038339875638485,-0.034007683396339417,1.074331283569336,
30030,-0.015244677662849426,-0.015102146193385124,1.0754550695419312,
30040,-0.01952308416366577,-0.03313593193888664,1.0425100326538086,
30050,-0.04412569850683212,0.01621815375983715,1.045479655265808,
30060,-0.028032351285219193,-0.05332229658961296,1.0535550117492676,
30070,-0.020350806415081024,-0.03377371281385422,1.0383033752441406,
30080,0.0018190443515777588,-0.026872800663113594,1.05574631690979,
30090,-0.015433567576110363,-0.019615737721323967,1.0247262716293335,
30100,-0.03900899738073349,-0.015061387792229652,1.0596961975097656,
30110,-0.024426637217402458,-0.06338378041982651,1.0250647068023682,
30120,-0.04622139409184456,-0.007784809451550245,1.0286412239074707,
30130,-0.013955670408904552,-0.000678410695400089,1.0299053192138672,
30140,-0.02644895389676094,0.009327774867415428,1.025132417678833,
30150,-0.01785297691822052,-0.04570455476641655,1.0020811557769775,
30160,-0.050729408860206604,-0.03527113422751427,1.0514647960662842,
30170,-0.03233598172664642,-0.0416531078517437,1.0663625001907349,
30180,-0.043903328478336334,0.0238396767526865,1.0234705209732056,
30190,0.024332772940397263,0.0020083002746105194,1.007327675819397,
30200,-0.0014557854738086462,-0.006133527960628271,1.028444528579712,
30210,0.023207208141684532,-0.04925991967320442,0.9592663645744324,
30220,-0.03261479362845421,-0.017564767971634865,1.0301198959350586,
30230,-0.002945505315437913,-0.027877287939190865,1.0126320123672485,
30240,-0.0487830750644207,-0.007688682526350021,1.021925449371338,
30250,-0.053957872092723846,0.033233556896448135,1.0146301984786987,
30260,-0.011541573330760002,-0.013776316307485104,0.9786800742149353,
30270,-0.04914812743663788,-0.010998410172760487,0.9836682081222534,
30280,-0.016644159331917763,-0.00972877535969019,0.9727632999420166,
30290,-0.0201386921107769,0.012430018745362759,0.9608203768730164,
30300,-0.028569653630256653,-0.04810855910181999,0.9823678135871887,
30310,-0.028666982427239418,-0.012685269117355347,0.9641692042350769,
30320,-0.0502886101603508,0.0037497698795050383,0.9800779223442078,
30330,-0.059943787753582,0.009727763943374157,0.9823365807533264,
30340,-0.0669822096824646,0.03588036075234413,0.9531447887420654,
30350,-0.0014777532778680325,-0.0030631518457084894,0.9552382826805115,
30360,-0.025900278240442276,-0.036195993423461914,0.9790728092193604,
30370,-0.04626915603876114,-0.029598386958241463,0.9868518114089966,
30380,-0.046408846974372864,-0.024209516122937202,0.9953463077545166,
30390,-0.04554710164666176,-0.03966977819800377,0.9942252039909363,
30400,-0.03814681991934776,-0.016141150146722794,0.9783259630203247,
30410,-0.02203560620546341,-0.05457558482885361,0.9632379412651062,
30420,-0.02514391392469406,0.009592385031282902,0.9747684597969055,
30430,0.014957924373447895,-0.04249325767159462,0.9610122442245483,
30440,-0.04016239196062088,-0.018119968473911285,0.9884547591209412,
30450,-0.04996369406580925,0.014457161538302898,0.9489309787750244,
30460,-0.025687791407108307,-0.0017392898444086313,0.9644345045089722,
30470,-0.032541424036026,-0.009500713087618351,1.008752465248108,
30480,-0.032586682587862015,-0.04895128309726715,0.9749029278755188,
30490,-0.016740381717681885,-0.03654325380921364,0.9683622121810913,
30500,-0.04676317423582077,0.01856093667447567,0.9721205234527588,
30510,-0.030684011057019234,-0.039843905717134476,0.9772610664367676,
30520,-0.045721206814050674,0.017249831929802895,0.9956229329109192,
30530,-0.036557637155056,-0.021509477868676186,0.9523196220397949,
30540,-0.03332668915390968,0.03754784166812897,0.9505616426467896,
30550,-0.021082226186990738,-0.018238089978694916,0.9580356478691101,
30560,-0.02695644088089466,-0.055209774523973465,0.9764705896377563,
30570,-0.040594324469566345,-0.033356983214616776,0.9973342418670654,
30580,-0.07119692862033844,-0.0018222547369077802,1.0174676179885864,
30590,-0.017768103629350662,-0.044146228581666946,0.9687952399253845,
30600,-0.04797098785638809,0.029268156737089157,0.9608504772186279,
30610,-0.061110757291316986,0.027137964963912964,0.9807878136634827,
30620,-0.07316859066486359,0.020579760894179344,0.9826982617378235,
30630,-0.03184408321976662,-0.003276288276538253,0.9581455588340759,
30640,0.01732981950044632,-0.041279908269643784,0.9712249636650085,
30650,-0.013555176556110382,-0.011895950883626938,1.0090807676315308,
30660,-0.017270419746637344,-0.03059183806180954,0.9665044546127319,
30670,0.0031016163993626833,-0.06999175250530243,0.9348790645599365,
30680,-0.042761579155921936,0.005778450518846512,0.9361355900764465,
30690,-0.03245391696691513,-0.019431892782449722,0.9792118668556213,
30700,-0.03347960114479065,-0.0011228061048313975,0.9718531966209412,
30710,-0.03015635535120964,-0.021022850647568703,0.9596227407455444,
30720,-0.050304923206567764,-0.01623229868710041,0.9894959330558777,
30730,-0.03922218084335327,-0.006086987443268299,1.0175318717956543,
30740,-0.006204887293279171,-0.034832507371902466,0.9828593730926514,
30750,-0.007046333979815245,-0.05692765489220619,0.9776840806007385,
30760,-0.0861770510673523,-0.03155352920293808,1.0260010957717896,
30770,0.006568500306457281,-0.029363399371504784,0.9901524782180786,
30780,-0.006407361943274736,-0.02938646450638771,0.9736378788948059,
30790,-0.027599889785051346,-0.01867988519370556,0.956360936164856,
30800,-0.024808155372738838,0.06198247894644737,0.9756717085838318,
30810,-0.04307890310883522,-0.007445007562637329,0.9518299102783203,
