time,acc.x,acc.y,acc.z,
15297,-0.007329265587031841,-0.0081019951030612,0.9898043870925903,
15307,-0.004355458077043295,0.0005739347543567419,0.973584771156311,
15317,0.002166826045140624,0.00440871762111783,0.9639278054237366,
15327,0.0010620339307934046,0.011988026089966297,0.9927061200141907,
15337,-0.012840025126934052,0.0015048339264467359,0.9988263249397278,
15347,-0.007089781574904919,-0.010678992606699467,0.983177900314331,
15357,0.0006990549154579639,-0.00427384814247489,1.004000186920166,
15367,0.00910546351224184,0.010096362791955471,1.0018926858901978,
15377,-0.0031345905736088753,0.01603381149470806,0.9835966229438782,
15387,-0.002548509044572711,0.005347399041056633,0.9820159673690796,
15397,-0.0019727563485503197,0.00696599530056119,0.991823673248291,
15407,-0.0061355894431471825,-0.0013930852292105556,0.9612075090408325,
15417,-0.005814857315272093,0.027051258832216263,0.9728615880012512,
15427,-0.004498344846069813,0.0285863745957613,1.0064375400543213,
15437,-0.006690047215670347,0.02353396825492382,0.9238041043281555,
15447,-0.001047369441948831,-0.03743886947631836,0.9641364812850952,
15457,-0.012478302232921124,0.02562904730439186,0.9932905435562134,
15467,0.012228108011186123,0.05948725342750549,0.9601300954818726,
15477,-0.03811662271618843,-0.007024180144071579,1.0053141117095947,
15487,0.017395175993442535,-0.028590107336640358,0.9728662967681885,
15497,0.01739189587533474,0.03351765498518944,0.9668753147125244,
15507,-0.009295339696109295,0.002688605571165681,1.002671241760254,
15517,-0.017708081752061844,-0.0025742785073816776,0.9671064019203186,
15527,0.026695694774389267,0.014128673821687698,1.0098958015441895,
15537,0.0004817114968318492,-0.0034624843392521143,0.9770609140396118,
15547,0.007574448361992836,-0.01636612042784691,0.9945392608642578,
15557,0.007343619596213102,0.023327136412262917,1.0213608741760254,
15567,0.009725386276841164,0.003134411294013262,0.995705246925354,
15577,-0.03729346767067909,-0.015401925891637802,1.024454116821289,
15587,0.02030036598443985,-0.007444173563271761,1.0114879608154297,
15597,-0.0021362232510000467,-0.0106240538880229,1.0199377536773682,
15607,-0.008524803444743156,-0.019708683714270592,1.0140233039855957,
15617,-0.008361502550542355,0.007040622644126415,0.9969324469566345,
15627,0.007120885420590639,-0.025086773559451103,1.023004174232483,
15637,-0.029192602261900902,0.017252907156944275,1.0201350450515747,
15647,0.004143883939832449,-0.010442613624036312,0.9855258464813232,
15657,0.0005612415843643248,0.0038209480699151754,1.0283762216567993,
15667,-0.010085000656545162,0.0004774999397341162,1.0252587795257568,
15677,-0.009842181578278542,0.023863596841692924,0.9589939713478088,
15687,0.0024117734283208847,0.03212935850024223,1.0030584335327148,
15697,0.015625229105353355,0.025035642087459564,1.0235334634780884,
15707,-0.004787825047969818,0.010445051826536655,0.965453028678894,
15717,0.0011186270276084542,-0.012998747639358044,1.007742166519165,
15727,-0.00849276501685381,0.057639557868242264,1.0048013925552368,
15737,-0.0016899645561352372,0.007154417224228382,1.01447594165802,
15747,-0.014186183921992779,0.002933183452114463,1.0363686084747314,
15757,0.030912114307284355,0.009879283607006073,1.0147802829742432,
15767,0.0005672684055753052,0.00271627027541399,1.0105880498886108,
15777,0.0008815707406029105,0.024211231619119644,1.0159014463424683,
15787,-0.005639039911329746,-0.002457092748954892,1.0321314334869385,
15797,-0.0008824639371596277,-0.021677758544683456,0.9891307950019836,
15807,-0.012100506573915482,-0.0060439216904342175,1.0455549955368042,
15817,0.012743441388010979,0.01235966756939888,1.0057631731033325,
15827,-0.0018222957151010633,-0.005112799350172281,0.9860076308250427,
15837,0.01831330917775631,0.0032877675257623196,1.0172888040542603,
15847,0.012825348414480686,0.013269058428704739,1.0056036710739136,
15857,-0.00202034879475832,-0.0012002323055639863,0.9987050890922546,
15867,-0.0060440171509981155,0.016705401241779327,1.0075196027755737,
15877,0.0031926531810313463,0.02068309113383293,1.012890100479126,
15887,0.011680856347084045,0.004604463465511799,1.0047098398208618,
15897,0.012905608862638474,-0.01129221636801958,1.0097291469573975,
15907,0.009937925264239311,-0.0055377245880663395,1.0003362894058228,
15917,-0.002216345863416791,0.014083843678236008,0.9859501719474792,
15927,-0.010282951407134533,0.00842284131795168,1.0066083669662476,
15937,-0.004361764062196016,-0.02983269654214382,1.0019824504852295,
15947,0.016261674463748932,-0.021299120038747787,1.004022240638733,
15957,1.9898978280252777e-05,-0.018874390050768852,0.9734073281288147,
15967,-0.0007634320645593107,-0.00028261152328923345,0.9767665863037109,
15977,0.0027054077945649624,0.017818434163928032,0.9895326495170593,
15987,-0.007085712160915136,0.047088734805583954,0.9662734270095825,
15997,-0.0061342427507042885,0.009861944243311882,0.9651904106140137,
16007,-0.010206840001046658,-0.0014398298226296902,1.0040397644042969,
16017,0.0009265572298318148,0.014272312633693218,0.972281813621521,
16027,-0.007202720735222101,-0.015851231291890144,0.9329702854156494,
16037,-0.015783295035362244,-0.006286325864493847,1.0097274780273438,
16047,0.011876096948981285,0.012322068214416504,0.9999417066574097,
16057,0.0029959019739180803,-0.0029685180634260178,0.9630982875823975,
16067,-0.018740737810730934,-0.03651482239365578,1.0107945203781128,
16077,-0.0031435361597687006,0.02035398781299591,1.014818549156189,
16087,0.015002752654254436,0.0388953797519207,0.9711605310440063,
16097,-0.011766006238758564,-0.0141964852809906,0.9298859238624573,
16107,0.004898755811154842,-0.0026212972588837147,0.9726404547691345,
16117,0.010637824423611164,0.013038982637226582,1.0142571926116943,
16127,0.005100050009787083,-0.005893262103199959,0.9567821025848389,
16137,-0.03546108305454254,-0.014063013717532158,1.0136595964431763,
16147,0.02141277678310871,0.011476672254502773,0.979895293712616,
16157,-0.0032429147977381945,0.02097676321864128,0.9705799221992493,
16167,-0.012389213778078556,0.04212212562561035,1.0070264339447021,
16177,0.0004951820592395961,0.06923723220825195,0.9833235740661621,
16187,0.025663496926426888,-0.019103460013866425,1.0399775505065918,
16197,0.01828925684094429,-0.03298657387495041,1.000599980354309,
16207,0.03894868865609169,-0.026884961873292923,1.0083203315734863,
16217,-0.00621826620772481,0.030318306758999825,0.9919370412826538,
16227,-0.031021492555737495,-0.018408965319395065,0.96943598985672,
16237,-0.01286899484694004,0.005584132857620716,0.9904382824897766,
16247,-0.0017189648933708668,-0.007221684791147709,0.9879894852638245,
16257,-0.013962416909635067,0.006901546381413937,1.0094164609909058,
16267,-0.0021705871913582087,0.005206530913710594,0.9812532067298889,
16277,0.007004243321716785,0.00045654262066818774,0.9991143345832825,
16287,-0.00020148506155237556,-0.005376655608415604,0.9990582466125488,
16297,-0.012965311296284199,0.008832434192299843,0.9970738291740417,
16307,-0.0016319742426276207,0.0029870145954191685,1.0140634775161743,
16317,-0.007529022172093391,-0.0029753567650914192,1.0191841125488281,
16327,-0.000883917382452637,-0.009529037401080132,1.014548420906067,
16337,-0.0026347835082560778,-0.012884658761322498,1.010441780090332,
16347,0.001542270532809198,1.3231605407781899e-05,0.9876139760017395,
16357,-0.005300757009536028,0.012919542379677296,0.9770467877388,
16367,-0.0010517004411667585,-0.0018363457638770342,1.0241879224777222,
16377,-0.002445993945002556,-0.0062942286022007465,1.011569857597351,
16387,-0.0029541943222284317,-0.03252189978957176,1.0185641050338745,
16397,-0.02338273450732231,0.0007340791053138673,1.046895146369934,
16407,0.002621177351102233,0.0010760074947029352,0.99821537733078,
16417,-0.007306457031518221,-0.016441592946648598,1.0057144165039062,
16427,-0.005404510535299778,0.007269096095114946,1.0498067140579224,
16437,-0.001974088605493307,0.0698559433221817,0.9813736081123352,
16447,-0.01668078824877739,0.00789031945168972,0.9718090891838074,
16457,-0.011160875670611858,-0.007136091589927673,0.9961370825767517,
16467,0.008986643515527248,0.037882160395383835,0.9789122939109802,
16477,-0.0026006849948316813,0.0213003009557724,0.958686351776123,
16487,-0.011017411947250366,0.019084179773926735,1.0346637964248657,
16497,0.03104974515736103,0.02531101182103157,0.9936345219612122,
16507,-0.011743794195353985,0.006291046738624573,0.9341185092926025,
16517,-0.019393976777791977,-0.013610869646072388,0.9696950912475586,
16527,0.0001965520204976201,0.04272972419857979,1.0001333951950073,
16537,0.010917729698121548,0.019211938604712486,0.9740824103355408,
16547,-0.04761229828000069,-0.016714900732040405,1.0023301839828491,
16557,0.02809048630297184,-0.0014256848953664303,1.027697205543518,
16567,0.005093318875879049,0.010639169253408909,1.0130327939987183,
16577,-0.02150752767920494,-0.005423990078270435,1.0160070657730103,
16587,-0.01147629227489233,0.055599331855773926,1.002527117729187,
16597,0.020120788365602493,-0.002230666810646653,1.037390112876892,
16607,-0.015374500304460526,-0.03165796399116516,1.0327866077423096,
16617,0.035336174070835114,-0.03303093463182449,1.0069200992584229,
16627,0.0013823829358443618,0.028920691460371017,0.9889956116676331,
16637,-0.021512391045689583,-0.013157648965716362,1.0094846487045288,
16647,-0.0044705490581691265,0.02391350083053112,0.9774863719940186,
16657,0.005635490175336599,0.0009427503682672977,1.0191936492919922,
16667,-0.018710218369960785,0.0043138922192156315,0.9895225167274475,
16677,-0.0017996948445215821,0.0017944097053259611,1.0007058382034302,
16687,0.009866101667284966,-0.012259263545274734,0.9960648417472839,
16697,0.0005265683284960687,-0.003506964771077037,0.9863939881324768,
16707,-0.0029121930710971355,0.014835469424724579,0.9653119444847107,
16717,0.002808712422847748,0.002117415890097618,0.991163432598114,
16727,-0.006337789352983236,-0.006115118507295847,1.0046961307525635,
16737,-0.005725409835577011,-0.012049327604472637,0.9857819676399231,
16747,0.0003876375558320433,-0.010317117907106876,0.979561448097229,
16757,-0.0012697315542027354,0.007608604151755571,0.9704058766365051,
16767,-0.005905483849346638,0.012768221087753773,0.9700378775596619,
16777,-0.013514130376279354,-0.010245164856314659,0.9883710145950317,
16787,-0.009319803677499294,-0.0016526516992598772,0.9749946594238281,
16797,0.0005214122356846929,-0.005112485960125923,0.9986473321914673,
16807,0.004371682647615671,-0.014757215045392513,1.001699447631836,
16817,0.037375956773757935,-0.006981316022574902,1.005287766456604,
16827,-0.0010927127441391349,-0.019398871809244156,0.9717891216278076,
16837,-0.014947688207030296,-0.00747923506423831,0.9767996072769165,
16847,0.0059767235070466995,0.04900805652141571,1.0002295970916748,
16857,0.0017859897343441844,0.005596750881522894,0.964989960193634,
16867,-0.021455205976963043,-0.037233758717775345,1.0135055780410767,
16877,0.010404756292700768,0.0014101264532655478,1.0417600870132446,
16887,0.01265454851090908,0.02752179279923439,0.9950908422470093,
16897,-0.02935076877474785,-0.032520897686481476,1.020580530166626,
16907,-0.01111251674592495,0.0006999928737059236,1.0210673809051514,
16917,0.017019549384713173,0.02092738449573517,1.0325701236724854,
16927,0.005753374192863703,-0.014100371859967709,0.9836193919181824,
16937,-0.0013466756790876389,-0.00488804467022419,0.9880852699279785,
16947,0.03367190062999725,0.039044663310050964,1.0061579942703247,
16957,-0.0034964228980243206,0.0030502111185342073,1.0102434158325195,
16967,-0.01960286684334278,-0.005137656815350056,0.996982216835022,
16977,0.0015911799855530262,0.02004382200539112,1.0144020318984985,
16987,-0.00021985017519909889,-0.000831493001896888,1.0406174659729004,
16997,-0.0035307803191244602,0.014674714766442776,1.0057719945907593,
17007,0.02780037932097912,-0.0205919798463583,1.0139594078063965,
17017,-0.0034880670718848705,0.01678527146577835,0.9971203207969666,
17027,-0.0034279904793947935,0.009564708918333054,0.9920383095741272,
17037,-0.012210041284561157,0.00423737708479166,0.9650174975395203,
17047,0.0035066271666437387,-0.024896342307329178,1.0197389125823975,
17057,-0.006524710915982723,-0.001979849999770522,0.9941734671592712,
17067,0.007018253207206726,-0.01628154143691063,0.9948484897613525,
17077,0.0004479961353354156,-0.003115852130576968,0.9997925758361816,
17087,0.013108526356518269,0.008212372660636902,0.9929476380348206,
17097,-0.011633374728262424,-0.005909822881221771,0.9787077903747559,
17107,-0.0123847471550107,-0.007442404516041279,1.0064955949783325,
17117,-0.00437156343832612,0.03342777118086815,1.0015146732330322,
17127,-0.022538766264915466,-0.014474816620349884,1.0135834217071533,
17137,-0.003364173462614417,-0.03390614315867424,1.0046266317367554,
17147,0.026275627315044403,-0.018142949789762497,1.0096590518951416,
17157,-0.002648831345140934,0.03638538345694542,1.0079809427261353,
17167,-0.02364901825785637,-0.014371762983500957,0.9640922546386719,
17177,-0.014450110495090485,-0.006611934397369623,1.023422122001648,
17187,0.009060734882950783,-0.009011560119688511,0.9976481199264526,
17197,-0.005362261552363634,0.023537930101156235,0.9726378917694092,
17207,-0.0055599515326321125,-0.009024499915540218,0.9752810001373291,
17217,0.01384912058711052,-0.010917823761701584,0.9990870952606201,
17227,0.0024069794453680515,-0.009249660186469555,0.9805243611335754,
17237,-0.008696972392499447,-0.0019780967850238085,0.9959585070610046,
17247,-0.007204256020486355,-0.0042474037036299706,1.0131525993347168,
17257,-0.014848810620605946,-0.0004634499200619757,0.9892852306365967,
17267,-0.009879729710519314,-0.006853356026113033,0.9757657051086426,
17277,0.002187149366363883,-0.013158733956515789,0.9876343607902527,
17287,-0.01140342652797699,0.002970379311591387,1.0026485919952393,
17297,-0.011615322902798653,-0.013603580184280872,0.9752129912376404,
17307,-0.0018774179043248296,-0.019188258796930313,0.9920012950897217,
17317,-0.0024017058312892914,0.0015016092220321298,1.021905541419983,
17327,-0.010758996941149235,0.023282745853066444,0.9596642255783081,
17337,-0.011760695837438107,0.01696333847939968,0.9655683636665344,
17347,0.014938132837414742,0.046845175325870514,1.0210858583450317,
17357,0.014987668953835964,0.022040534764528275,0.978273332118988,
17367,-0.007086087949573994,-0.02387157455086708,0.9966198205947876,
17377,-0.007851033471524715,0.05178162828087807,1.0169217586517334,
17387,0.011967931874096394,0.01788250543177128,0.9476951956748962,
17397,0.003896445734426379,-0.03388223052024841,0.9906401634216309,
17407,0.010536075569689274,-0.006550164427608252,0.9772996306419373,
17417,0.015902655199170113,0.013903730548918247,1.0182538032531738,
17427,0.0014703650958836079,0.004013766534626484,0.9986828565597534,
17437,-0.011487651616334915,0.005455842707306147,0.9907882213592529,
17447,0.003795138793066144,0.0013116099871695042,1.0105645656585693,
17457,-0.017009146511554718,-0.009265783242881298,1.0197803974151611,
17467,0.0008075705845840275,0.0045375339686870575,0.9805723428726196,
17477,-0.005502767860889435,0.015525111928582191,0.9985136985778809,
17487,-0.006904608104377985,-0.009577355347573757,1.0315909385681152,
17497,-0.004663865081965923,-0.009815849363803864,0.9977162480354309,
17507,0.009658112190663815,-0.03207617253065109,1.05448317527771,
17517,-0.024155212566256523,0.009417743422091007,1.029085397720337,
17527,0.0007945214747451246,-0.012144804000854492,1.0160136222839355,
17537,-0.012476159259676933,-0.015363076701760292,1.0077604055404663,
17547,0.010739026591181755,-0.005477765575051308,1.0463032722473145,
17557,-0.006872100755572319,0.009450329467654228,0.9993516802787781,
17567,-0.013315120711922646,-0.011575458571314812,0.9923838376998901,
17577,0.00458561023697257,0.027739249169826508,1.023613691329956,
17587,-0.011121129617094994,-0.013335630297660828,0.9912502765655518,
17597,-0.0007312584202736616,-0.0011914439965039492,1.0111764669418335,
17607,0.03226054459810257,0.014290307648479939,1.0081924200057983,
17617,0.0002732833381742239,-0.018268661573529243,1.0147048234939575,
17627,-0.002136116847395897,0.023856109008193016,0.9991758465766907,
17637,-0.001219643047079444,0.023118138313293457,1.0022441148757935,
17647,-0.018074579536914825,-0.006462376099079847,1.0033838748931885,
17657,0.01004581619054079,-0.022128472104668617,0.9897703528404236,
17667,0.009204023517668247,-0.0043762195855379105,0.9809967875480652,
17677,-0.0002651429967954755,-0.007107332348823547,0.9865846633911133,
17687,-0.012634726241230965,0.015857307240366936,0.966550350189209,
17697,0.0011053855996578932,-0.0320211760699749,1.012339472770691,
17707,0.0068705398589372635,0.020878897979855537,1.0040203332901,
17717,0.007254656404256821,0.004623705986887217,0.9607824683189392,
17727,-0.0036521349102258682,-0.0012378789251670241,0.961138129234314,
17737,-0.012552734464406967,0.0013836631551384926,0.9805092811584473,
17747,0.0029314851853996515,0.008116978220641613,0.9620698094367981,
17757,-0.009155125357210636,-0.026230188086628914,0.9347465634346008,
17767,-0.018800636753439903,-0.020110182464122772,0.9732568860054016,
17777,-0.006042886059731245,0.017914632335305214,0.9914356470108032,
17787,-0.006572265177965164,-0.017140571027994156,0.9399070143699646,
17797,-0.027568474411964417,-0.024985352531075478,1.002041220664978,
17807,0.037440717220306396,0.019214177504181862,0.9913893938064575,
17817,-0.004146819468587637,-0.006819024682044983,0.9580384492874146,
17827,-0.020698148757219315,-0.01460182759910822,0.9899696111679077,
17837,-0.009583428502082825,0.06187651306390762,0.9767441749572754,
17847,0.005558259319514036,0.0034639022778719664,1.0133153200149536,
17857,-0.023348210379481316,-0.014878271147608757,0.9624457955360413,
17867,0.012101741507649422,-0.009759074077010155,0.9816349148750305,
17877,-0.0051738666370511055,0.03213391825556755,0.9760324358940125,
17887,-0.012063263915479183,-0.0020278971642255783,1.0011773109436035,
17897,-0.017739178612828255,-0.009368818253278732,1.0067317485809326,
17907,0.019099563360214233,-0.03375745564699173,1.0244877338409424,
17917,-0.0013251951895654202,0.014988716691732407,1.0183748006820679,
17927,0.0071870493702590466,-0.003931286744773388,1.0030230283737183,
17937,0.0051001254469156265,-0.004306161776185036,1.0151270627975464,
17947,-0.0015609414549544454,-0.01307868305593729,1.0353422164916992,
17957,-0.00616237660869956,-0.011322613805532455,1.0105724334716797,
17967,-0.008297537453472614,-0.0001225574960699305,1.0136957168579102,
17977,-0.0029087362345308065,0.006996717303991318,1.0011777877807617,
17987,-0.01805352233350277,-0.0025010386016219854,1.0158785581588745,
17997,0.0025982121005654335,0.0023134732618927956,1.0214850902557373,
18007,-0.009273603558540344,-0.010956758633255959,0.9835646152496338,
18017,0.0015067559434100986,-0.022545941174030304,0.9992230534553528,
18027,0.010190797969698906,0.040418948978185654,1.0275651216506958,
18037,0.005937660112977028,0.01698978990316391,1.0026723146438599,
18047,-0.040030188858509064,-0.007557072211056948,1.044311761856079,
18057,0.030070526525378227,-0.0249604694545269,1.0511575937271118,
18067,0.020781371742486954,-0.02243047021329403,1.034791350364685,
18077,-0.007420259062200785,-0.008466046303510666,0.9998879432678223,
18087,0.006787399295717478,0.031165147200226784,0.9517563581466675,
18097,-0.011038870550692081,0.024933304637670517,0.99664705991745,
18107,-0.010133825242519379,0.010432512499392033,1.010347843170166,
18117,-0.00455131521448493,0.01814824901521206,1.0030021667480469,
18127,0.0017593720695003867,-1.8972203179146163e-05,1.0157347917556763,
18137,-0.004172096960246563,-0.007604991085827351,1.0286811590194702,
18147,0.006120555102825165,-0.0374855175614357,1.0425885915756226,
18157,-0.009620795957744122,0.02560890093445778,1.0291839838027954,
18167,0.0057138362899422646,-0.0004826963704545051,1.0053738355636597,
18177,-0.008220111019909382,-0.017633244395256042,1.0163242816925049,
18187,0.010147315450012684,0.007162605877965689,1.0167429447174072,
18197,-0.01804669201374054,-0.006419347133487463,0.9600234031677246,
18207,-0.009666450321674347,-0.0014869642909616232,0.9994622468948364,
18217,0.007226817775517702,0.033968307077884674,1.0281480550765991,
18227,0.0006433340022340417,-0.002629703376442194,0.9542284607887268,
18237,-0.03177358955144882,-0.016208140179514885,1.039487600326538,
18247,0.02610558085143566,0.021859606727957726,1.0100350379943848,
18257,0.0025686791632324457,0.0014352855505421758,0.998836100101471,
18267,-0.002851269906386733,-0.007090853527188301,1.0023223161697388,
18277,0.009956144727766514,0.02404334954917431,1.0070796012878418,
18287,0.01621694304049015,-0.021323036402463913,1.0136946439743042,
18297,-0.021304745227098465,0.0020718167070299387,1.0265066623687744,
18307,-0.006303185597062111,0.0029414144810289145,0.9834343194961548,
18317,-0.004892165306955576,0.00938998069614172,1.0223259925842285,
18327,0.0025111560244113207,-0.010359525680541992,1.0245753526687622,
18337,0.0027445240411907434,0.025661136955022812,0.9897820949554443,
18347,0.0023284258786588907,0.023379404097795486,1.0136241912841797,
18357,0.0023801408242434263,0.03566647320985794,0.9850775003433228,
18367,0.0055151344276964664,0.00947079062461853,0.9970231056213379,
18377,-0.006632919888943434,-0.002245561685413122,0.9929206967353821,
18387,0.0035442120861262083,-0.0072799609042704105,1.0005738735198975,
18397,-0.0024235383607447147,0.03695930168032646,0.9995328187942505,
18407,0.01572142355144024,0.017946923151612282,0.9936020970344543,
18417,-0.007858416065573692,-0.03567792847752571,1.0117340087890625,
18427,0.026330560445785522,-0.006889461539685726,1.0154013633728027,
18437,0.004080811981111765,0.017332255840301514,1.0205384492874146,
18447,-0.015941159799695015,0.027949756011366844,1.002881646156311,
18457,-0.001375074265524745,0.0178228747099638,1.039731740951538,
18467,0.014836733229458332,0.008097376674413681,1.0307698249816895,
18477,0.00475745415315032,-0.013080107048153877,1.0506700277328491,
18487,0.0053662871941924095,0.012510064989328384,1.0559699535369873,
18497,-0.004150012973695993,-0.003465519053861499,1.0342804193496704,
18507,-0.016818806529045105,0.0025603151880204678,1.0619372129440308,
18517,0.0035902198869735003,-0.011887653730809689,1.0406991243362427,
18527,-0.013496730476617813,0.00788051262497902,1.0629056692123413,
18537,-0.005944071337580681,-0.0005762095679529011,1.075545310974121,
18547,0.0016795927658677101,-0.0011259198654443026,1.07146155834198,
18557,-0.00706819724291563,-0.002305899979546666,1.0681087970733643,
18567,-0.008035748265683651,-0.021570459008216858,1.1045176982879639,
18577,0.005146189127117395,0.00896633230149746,1.1020524501800537,
18587,-0.004256092477589846,0.005974202882498503,1.1185412406921387,
18597,0.02047404646873474,-0.0036056581884622574,1.1191558837890625,
18607,-0.001400223234668374,-0.012078800238668919,1.12005615234375,
18617,0.006690183188766241,0.030955588445067406,1.1130268573760986,
18627,-0.009667021222412586,-0.004521256312727928,1.086179256439209,
18637,-0.003330840729176998,0.01879122480750084,1.0873359441757202,
18647,-0.005560652818530798,-0.012022760696709156,1.1031670570373535,
18657,0.02614276483654976,0.012060352601110935,1.1149308681488037,
18667,-0.003552448470145464,0.022035891190171242,1.106043815612793,
18677,0.00466338824480772,0.02486293390393257,1.1080107688903809,
18687,-0.0024938369169831276,0.0014322905335575342,1.0838372707366943,
18697,0.017318466678261757,-0.015895094722509384,1.1137309074401855,
18707,-0.005090984981507063,0.004343570675700903,1.1023143529891968,
18717,-0.009651169180870056,0.019589638337492943,1.115867257118225,
18727,0.010117421858012676,8.112029900075868e-05,1.1652486324310303,
18737,0.011942677199840546,-0.003907498903572559,1.1428520679473877,
18747,-0.003604835830628872,0.01233152486383915,1.1167197227478027,
18757,0.0034289308823645115,0.000548817974049598,1.1032379865646362,
18767,0.0028304546140134335,-0.013073007576167583,1.1374791860580444,
18777,-0.012993530370295048,0.01669214479625225,1.1126197576522827,
18787,-0.007888926193118095,-0.014862466603517532,1.1044025421142578,
18797,0.01103820651769638,0.005821010563522577,1.0744529962539673,
18807,0.00534420320764184,0.0022772361990064383,1.080734133720398,
18817,0.001828427193686366,0.015312949195504189,1.0709422826766968,
18827,0.008688598871231079,-0.004986056126654148,1.0939286947250366,
18837,0.011866799555718899,0.020711887627840042,1.1098061800003052,
18847,-0.020739413797855377,0.005909559316933155,1.078484058380127,
18857,-0.007971650920808315,-0.006351627875119448,1.063914179801941,
18867,0.010169947519898415,0.004951393697410822,1.041521430015564,
18877,-0.005749738775193691,0.0003245362895540893,1.0606640577316284,
18887,0.002119316952303052,0.004603587090969086,1.0731488466262817,
18897,-0.012818794697523117,-0.013272498734295368,1.0286552906036377,
18907,0.007254813797771931,-0.005728103686124086,1.0063786506652832,
18917,0.0038395493756979704,-0.006856925785541534,1.0393118858337402,
18927,-0.009590309113264084,-0.003865088103339076,0.9923574328422546,
18937,0.001678043743595481,-0.0031791431829333305,1.0021891593933105,
18947,-0.010941281914710999,0.0027704264502972364,1.0102794170379639,
18957,0.0037438159342855215,0.0036515926476567984,0.9820914268493652,
18967,0.001452773343771696,0.008795762434601784,0.9938439726829529,
18977,0.011130021885037422,-0.003233079332858324,1.025516152381897,
18987,-0.0011789683485403657,-0.00024422159185633063,0.9560412764549255,
18997,0.005529782269150019,-0.043221354484558105,1.0082887411117554,
19007,-0.0014069974422454834,0.00989127904176712,0.969076931476593,
19017,0.018163418397307396,-0.02371804416179657,0.9700852632522583,
19027,-0.0034726704470813274,-0.014872158877551556,0.9459392428398132,
19037,0.02207482047379017,-0.015451337210834026,0.9731741547584534,
19047,-0.004519921727478504,0.025975791737437248,0.9108326435089111,
19057,-0.014093668200075626,-0.005913874600082636,0.9369610548019409,
19067,-0.004727005492895842,0.034932978451251984,0.9403859972953796,
19077,0.0047669499181210995,0.03313476964831352,0.926199197769165,
19087,-0.00356268510222435,-0.002068242756649852,0.8908974528312683,
19097,-0.008385002613067627,-0.024085741490125656,0.9436431527137756,
19107,0.010135302320122719,0.007296228781342506,0.9426184892654419,
19117,0.006987111642956734,0.06026285141706467,0.9111425876617432,
19127,-0.015351111069321632,0.007012133952230215,0.9007370471954346,
19137,-0.010378510691225529,-0.030182605609297752,0.9311176538467407,
19147,0.021372947841882706,0.003995525650680065,0.9232008457183838,
19157,0.018401524052023888,0.0010265064192935824,0.9191808700561523,
19167,-0.010066649876534939,-0.007666127290576696,0.9203112721443176,
19177,-0.007575185038149357,0.007909762673079967,0.9306304454803467,
19187,0.008578569628298283,0.011269505135715008,0.9091257452964783,
19197,-0.008040848188102245,-0.008884348906576633,0.9260905385017395,
19207,-0.016680030152201653,-0.00764256389811635,0.9278610944747925,
19217,-0.006290242075920105,-0.01711542345583439,0.9305853247642517,
19227,0.00372601137496531,-0.008915196172893047,0.9165842533111572,
19237,0.00015590125985909253,0.003900381037965417,0.9294419288635254,
19247,-0.006021604407578707,-0.0027457638643682003,0.9215971827507019,
19257,-0.01008981466293335,-0.009375977329909801,0.8958554267883301,
19267,0.006282782647758722,-0.02805027738213539,0.9367213845252991,
19277,-0.0019814001861959696,-0.012935541570186615,0.9502646327018738,
19287,0.01015695370733738,-0.004565101116895676,0.8963907957077026,
19297,-0.003712504869326949,-0.010091325268149376,0.9045842289924622,
19307,-0.001084536430425942,-0.005864134524017572,0.945695161819458,
19317,0.021541930735111237,-0.010825206525623798,0.9406291842460632,
19327,-0.0008024853887036443,-0.015920670703053474,0.9094388484954834,
19337,0.005448141600936651,-0.054675694555044174,0.952265739440918,
19347,0.008967752568423748,0.05634022131562233,0.9510940909385681,
19357,-0.0012248929124325514,0.07088516652584076,0.9355387091636658,
19367,-0.02362387254834175,-0.018406687304377556,0.8777176141738892,
19377,-0.03346388414502144,-0.03438791632652283,0.9358426928520203,
19387,0.045149531215429306,-0.011334266513586044,0.9816380739212036,
19397,0.026568274945020676,0.043876659125089645,0.9409081339836121,
19407,0.0005086787277832627,0.010303950868546963,0.9277845025062561,
19417,-0.0068810973316431046,0.013749872334301472,0.9651540517807007,
19427,0.038412973284721375,0.018856482580304146,0.9842655658721924,
19437,0.00671352306380868,0.012872662395238876,0.9632923603057861,
19447,-0.010247359983623028,-0.0161715317517519,0.963935911655426,
19457,0.006923541892319918,-0.0014752127462998033,0.9668447971343994,
19467,-0.007273461669683456,-0.004197361413389444,0.9724570512771606,
19477,-0.010409190319478512,-0.009865522384643555,0.9649749994277954,
19487,0.013734557665884495,-0.003167851362377405,0.9692453145980835,
19497,0.005515866447240114,0.005481112748384476,0.9751071929931641,
19507,-0.00618703244253993,-0.0050694686360657215,0.9760379195213318,
19517,-0.013342520222067833,0.00474551972001791,0.9710803627967834,
19527,-0.004342341795563698,-0.005494651384651661,0.980282723903656,
19537,-0.005222154315561056,-0.010793795809149742,0.9657190442085266,
19547,-0.0006756484508514404,-0.011503275483846664,0.9621557593345642,
19557,-0.006364177446812391,-0.004449842963367701,0.9880715012550354,
19567,-0.008177452720701694,0.028266625478863716,0.9875370860099792,
19577,-0.015852054581046104,-0.003913018386811018,0.9769261479377747,
19587,-0.008635150268673897,-0.017226427793502808,0.9833440184593201,
19597,0.015389282256364822,-0.0060182842426002026,0.996444582939148,
19607,-0.008035711012780666,-0.026851918548345566,0.9851460456848145,
19617,-0.00849289819598198,-0.009006263688206673,0.9794224500656128,
19627,0.0009307233267463744,0.010249479673802853,0.9778543710708618,
19637,-0.011682955548167229,-0.02169925533235073,0.9996054768562317,
19647,0.0017638570861890912,0.029398655518889427,1.0109543800354004,
19657,0.03188291937112808,0.0173599012196064,0.989950954914093,
19667,-0.013791532255709171,-0.019550194963812828,1.004785418510437,
19677,0.031217632815241814,-0.007429097313433886,1.0431793928146362,
19687,0.004304019268602133,0.005248511675745249,0.9909066557884216,
19697,-0.033289115875959396,-0.027877330780029297,1.0096712112426758,
19707,-0.017909422516822815,0.04535204544663429,0.9886251091957092,
19717,0.011376040056347847,0.009678361006081104,1.0082371234893799,
19727,-0.01974031701683998,-0.006995179690420628,0.986319363117218,
19737,0.03263795003294945,-0.02051512524485588,0.9870529174804688,
19747,0.007092413492500782,0.013570716604590416,0.9738621115684509,
19757,-0.00171194679569453,-0.004719172604382038,0.9976683259010315,
19767,-0.009181596338748932,0.027215801179409027,1.0021439790725708,
19777,0.009070737287402153,-0.030892999842762947,1.0112085342407227,
19787,-0.00863796565681696,-0.005669023841619492,0.9985479116439819,
19797,0.0024485590402036905,-0.024111498147249222,0.9663825631141663,
19807,0.0005604210891760886,-0.004686197265982628,0.9869289398193359,
19817,0.0015239088097587228,0.008388101123273373,0.9775521755218506,
19827,-0.0016643055714666843,0.0010868590325117111,1.0050944089889526,
19837,4.103143874090165e-05,-0.0021275675389915705,1.0131044387817383,
19847,0.0001730718940962106,0.0034735777880996466,0.991223931312561,
19857,-0.0006940686726011336,-0.004149690270423889,0.9968276023864746,
19867,0.006076454184949398,0.0093532120808959,0.9997544884681702,
19877,0.003216587007045746,0.0017731479601934552,0.9973236322402954,
19887,0.0037694964557886124,-0.001283701159991324,0.9916396737098694,
19897,0.01055477187037468,0.009316914714872837,1.030436635017395,
19907,-0.006929617840796709,-0.019627368077635765,1.0211641788482666,
19917,-0.011141057126224041,0.03333662077784538,1.0011885166168213,
19927,0.008850444108247757,0.05269249901175499,1.0275471210479736,
19937,-0.005808683577924967,0.014469870366156101,0.947749674320221,
19947,0.01578442007303238,0.006042955908924341,0.9717111587524414,
19957,0.007269774563610554,0.011977963149547577,0.9959361553192139,
19967,-0.016811152920126915,-0.016529424116015434,0.9805830717086792,
19977,-0.014269005507230759,0.017888326197862625,0.9700989723205566,
19987,0.024989090859889984,0.004161088261753321,0.9725216627120972,
19997,0.009137313812971115,-0.018351539969444275,0.9726764559745789,
20007,-0.007472928147763014,-0.010754058137536049,0.9792088866233826,
20017,0.02101229876279831,-0.014535789377987385,0.9601801037788391,
20027,-0.0056574358604848385,-0.023507652804255486,0.9982372522354126,
20037,-0.008482517674565315,-0.016300497576594353,0.9730003476142883,
20047,-0.014084970578551292,0.0069515276700258255,0.9487013220787048,
20057,-0.010617906227707863,-0.01112005952745676,0.9846379160881042,
20067,-0.015207614749670029,0.024369986727833748,0.9650654196739197,
20077,0.012786803767085075,-0.027794618159532547,0.9982807636260986,
20087,-0.008415523916482925,-0.007855973206460476,0.9958255887031555,
20097,0.008886114694178104,-0.017960738390684128,1.0048470497131348,
20107,-0.02782560884952545,-0.011654998175799847,0.9622325897216797,
20117,-0.004868657328188419,-0.0010988544672727585,0.9880959391593933,
20127,-0.013366986997425556,0.035251080989837646,1.0014883279800415,
20137,0.000126061582705006,-0.03525956720113754,0.9922009110450745,
20147,0.0009204766247421503,-0.00849378015846014,1.0003347396850586,
20157,0.022097336128354073,-0.018625183030962944,1.0248714685440063,
20167,0.004322693217545748,-0.009721487760543823,1.011154055595398,
20177,0.010252909734845161,0.005774267017841339,1.0047184228897095,
20187,-0.017371101304888725,-0.00011972899665124714,0.997883677482605,
20197,-0.006189859006553888,-0.01292546559125185,1.0039846897125244,
20207,0.00022507330868393183,0.005834969226270914,1.0143438577651978,
20217,-0.017717134207487106,-0.023537298664450645,1.0314257144927979,
20227,0.0046923840418457985,-0.015407855622470379,0.9899446368217468,
20237,0.01235128752887249,-0.007200792897492647,0.9885973930358887,
20247,-0.006950571201741695,-0.0032125189900398254,1.0078150033950806,
20257,-0.016098791733384132,0.017459828406572342,1.0166465044021606,
20267,-0.002691536210477352,0.006375411991029978,0.9937363862991333,
20277,-0.03814403712749481,-0.01859816536307335,1.014073133468628,
20287,0.025127392262220383,-0.03060038946568966,1.0127290487289429,
20297,0.0015797439264133573,-0.01012666616588831,1.0009071826934814,
20307,0.0037018205039203167,-0.020083582028746605,1.027470588684082,
20317,-0.010033522732555866,0.007757995277643204,0.9844887852668762,
20327,-0.003752435091882944,-0.03507441654801369,1.0101338624954224,
20337,-0.009503637440502644,0.008539579808712006,1.0010000467300415,
20347,0.005467004608362913,-0.020880386233329773,0.9832894802093506,
20357,-0.013914601877331734,-0.016658324748277664,1.0085622072219849,
20367,0.006783572491258383,0.005251086782664061,0.9839833378791809,
20377,-0.017395714297890663,-0.010388068854808807,0.9473692178726196,
20387,-0.01106693223118782,-0.014173228293657303,0.9995325803756714,
20397,-0.004388022236526012,0.003159092739224434,1.0027952194213867,
20407,0.0009833491640165448,-0.00886275339871645,1.0054997205734253,
20417,-0.019671132788062096,0.025449572131037712,1.0495063066482544,
20427,-0.01946752518415451,-0.0026952209882438183,1.0269954204559326,
20437,-0.006168051157146692,-0.025299405679106712,0.9913058876991272,
20447,0.0326908603310585,-0.025328105315566063,0.9920767545700073,
20457,-0.008690093643963337,0.008065926842391491,0.9644298553466797,
20467,-0.0009432236547581851,0.020626980811357498,0.9961671233177185,
20477,-0.021175619214773178,0.0032852902077138424,1.010324478149414,
20487,-0.0015340320533141494,-0.03349181264638901,1.0197573900222778,
20497,-0.0009500753949396312,-0.01348397321999073,1.015033483505249,
20507,0.017246732488274574,-0.0024328872095793486,1.007607340812683,
20517,-0.009998241439461708,0.012728157453238964,0.9843667149543762,
20527,-9.397139365319163e-05,0.000876537524163723,1.0104848146438599,
20537,0.00506491307169199,-0.00013531825970858335,1.0112617015838623,
20547,-0.01063044834882021,-0.005666953045874834,1.0142558813095093,
20557,-0.003821498015895486,-0.00930539146065712,0.990121066570282,
20567,-0.009069510735571384,-0.01613296940922737,1.0333696603775024,
20577,-0.008578509092330933,-0.01706722378730774,1.0080708265304565,
20587,-0.006318619474768639,-0.005990334786474705,1.0011240243911743,
20597,0.00026473047910258174,-0.005491393618285656,1.0247446298599243,
20607,-0.014337187632918358,0.011705406941473484,0.9822891354560852,
20617,0.0014821289805695415,-0.0299490038305521,1.012454867362976,
20627,-0.017852678894996643,0.0020344979129731655,1.0490084886550903,
20637,-0.0006765896687284112,-0.03931337967514992,0.9602941870689392,
20647,-0.004243472125381231,-0.025352666154503822,1.0145000219345093,
20657,0.0059010242111980915,-0.006811497267335653,1.0063380002975464,
20667,-0.026425300166010857,0.018064750358462334,0.9512958526611328,
20677,-0.0052261450327932835,0.03015715442597866,1.0007423162460327,
20687,0.0016578149516135454,0.054388828575611115,1.0221270322799683,
20697,-0.015073985792696476,-0.01183689571917057,0.957686722278595,
20707,-0.014764498919248581,-0.024276861920952797,0.9934871196746826,
20717,0.020410625264048576,0.008004779927432537,1.037723422050476,
20727,-0.011469940654933453,-0.02783864364027977,0.9799938797950745,
20737,-0.0020482682157307863,0.006369863171130419,0.9854990839958191,
20747,0.00916428305208683,0.014509429223835468,0.9769899845123291,
20757,-0.025224072858691216,-0.03570428490638733,0.9979739785194397,
20767,-0.0025381366722285748,0.005711123812943697,0.9761983156204224,
20777,0.01774325594305992,-0.008889848366379738,1.0055549144744873,
20787,-0.00220035994425416,-0.01060881931334734,1.010068416595459,
20797,0.014641235582530499,-0.00908638909459114,1.00184166431427,
20807,0.00072993099456653,0.0024209306575357914,1.0064235925674438,
20817,-0.0043307701125741005,-0.01407143846154213,0.9890958666801453,
20827,-0.009072652086615562,0.00843837670981884,1.0002269744873047,
20837,-0.018066873773932457,0.008534694090485573,0.9777266383171082,
20847,-0.021911613643169403,0.020742392167448997,1.008145809173584,
20857,-0.0073667969554662704,-0.02091117948293686,0.9874298572540283,
20867,-0.008885374292731285,-0.0019602866377681494,0.9983254671096802,
20877,-0.0005255062715150416,0.005157935433089733,0.9847493171691895,
20887,-0.005529465153813362,0.01089736819267273,0.9869297742843628,
20897,0.005011253524571657,0.007731055375188589,0.9992769360542297,
20907,-0.004786948207765818,-0.006679554935544729,0.998360276222229,
20917,-0.0041100759990513325,-0.005225285422056913,1.0014923810958862,
20927,-0.012173468247056007,-0.018612559884786606,0.9960961937904358,
20937,-0.013441931456327438,-0.022872094064950943,1.0075571537017822,
20947,-0.010432150214910507,-0.0036605154164135456,1.009140133857727,
20957,-0.008044707588851452,-0.006434977985918522,0.9728236198425293,
20967,-0.01476829219609499,-0.008361059240996838,0.9832050204277039,
20977,0.0033412587363272905,0.040144182741642,1.0011430978775024,
20987,-0.011678287759423256,0.007703855633735657,0.9438535571098328,
20997,-0.0054076253436505795,0.0068244305439293385,1.0235660076141357,
21007,0.01826687529683113,0.012969612143933773,1.0340135097503662,
21017,-0.005058920942246914,-0.010614121332764626,0.9924532175064087,
21027,-0.009243876673281193,0.02508286014199257,1.0407752990722656,
21037,0.024743404239416122,0.050494637340307236,1.0020211935043335,
21047,-0.008460264652967453,0.004737001843750477,0.9560824632644653,
21057,0.011020559817552567,-0.0013222747948020697,0.9650747776031494,
21067,0.03483690321445465,0.026343967765569687,1.014945149421692,
21077,0.006658119615167379,0.03755929321050644,1.0022847652435303,
21087,-0.022193241864442825,0.055539436638355255,0.9951509833335876,
21097,0.02480193041265011,-0.01146539393812418,1.0078991651535034,
21107,0.0012052776291966438,-0.01643589325249195,0.9984267354011536,
21117,0.01573510840535164,-0.015659784898161888,1.0014556646347046,
21127,-0.006813251879066229,0.0099060432985425,1.010286569595337,
21137,-0.020531462505459785,-0.019148798659443855,1.0002604722976685,
21147,-0.012375441379845142,0.00835839007049799,0.9763678908348083,
21157,-0.007462635636329651,-0.0013498780317604542,1.004573941230774,
21167,-0.021741194650530815,-0.015730498358607292,1.0005693435668945,
21177,0.0017069904133677483,-0.001288113766349852,0.977417528629303,
21187,-0.0068055265583097935,-0.0025267822202295065,1.006281852722168,
21197,-0.017216995358467102,-0.01729968748986721,0.9940754771232605,
21207,0.009585524909198284,0.0014528564643114805,1.0012134313583374,
21217,-0.017531994730234146,-0.018521420657634735,1.0228360891342163,
21227,-0.014705292880535126,-0.017473461106419563,0.9801616072654724,
21237,0.0002921604027505964,0.0024979703593999147,0.9757282733917236,
21247,-0.010702148079872131,-0.0017203926108777523,0.9759478569030762,
21257,-0.012553173117339611,-0.004009583964943886,0.9593554735183716,
21267,-0.010161085985600948,-0.00997491367161274,0.9814738631248474,
21277,0.017004359513521194,0.013029832392930984,0.9908973574638367,
21287,-0.013971040025353432,-0.01953766867518425,0.9606004357337952,
21297,0.008957131765782833,-0.031086305156350136,0.990774393081665,
21307,-0.000536834413651377,0.035926807671785355,0.9993768334388733,
21317,0.016551299020648003,0.02322322316467762,1.0075665712356567,
21327,-0.045946672558784485,0.017260316759347916,1.026269555091858,
21337,0.02623283676803112,-0.006352921016514301,1.0692309141159058,
21347,0.01093929260969162,-0.010302206501364708,0.9687951803207397,
21357,-0.009813789278268814,0.005614008288830519,0.9891083836555481,
21367,0.005345913581550121,0.03772474080324173,1.0059688091278076,
21377,-0.018228378146886826,-0.0012723024701699615,0.9584304094314575,
21387,-0.002966479863971472,-0.007451947778463364,0.9823207855224609,
21397,0.004611159674823284,0.01668163761496544,0.992753803730011,
21407,-0.004860767628997564,-0.015438086353242397,0.9580463767051697,
21417,-0.003371564205735922,0.020426582545042038,1.0003975629806519,
21427,0.01653088442981243,0.05658791586756706,0.9557085633277893,
21437,-0.0011098679387941957,0.01963069848716259,0.9678756594657898,
21447,0.004298048559576273,0.018821917474269867,0.987932562828064,
21457,-0.004817957058548927,0.0010340495500713587,1.004410743713379,
21467,-0.022185562178492546,0.03040706180036068,0.9965094923973083,
21477,-0.004455923568457365,0.04673562943935394,0.991711437702179,
21487,0.0014073933707550168,-0.0038882920052856207,1.0118557214736938,
21497,0.010452414862811565,-0.017795832827687263,0.9716718792915344,
21507,0.01198900118470192,-0.018682362511754036,1.0020891427993774,
21517,-0.007173226214945316,0.04313765466213226,0.9961233735084534,
21527,-0.0029420698992908,0.025267411023378372,1.0037599802017212,
21537,-0.051180146634578705,-0.006374232936650515,1.0546988248825073,
21547,-0.02419275790452957,-0.027584237977862358,1.0451055765151978,
21557,-0.002202062401920557,-0.014410818926990032,1.0104628801345825,
21567,-0.000692114292178303,0.031687065958976746,1.0010976791381836,
21577,-0.009617137722671032,0.05147784203290939,0.9801855683326721,
21587,-0.01196029968559742,-0.0004986294079571962,0.9968528151512146,
21597,0.003724858397617936,0.0010878065368160605,0.9619510173797607,
21607,-0.012785800732672215,-0.002653359202668071,1.0033948421478271,
21617,0.015209968201816082,0.04213662073016167,1.0158814191818237,
21627,0.006923752371221781,-0.00025869463570415974,1.0096096992492676,
21637,-0.017944717779755592,-0.013124951161444187,0.9999216198921204,
21647,0.01672276481986046,0.020620986819267273,1.0048389434814453,
21657,-0.0009357932140119374,0.011014670133590698,0.985944926738739,
21667,-0.005623605567961931,-0.0067110140807926655,1.0132578611373901,
21677,0.0013930738205090165,0.013188054785132408,1.0232229232788086,
21687,-0.010260851122438908,-0.021805383265018463,0.9681596755981445,
21697,-0.010089654475450516,-0.0009512302349321544,1.0004823207855225,
21707,0.015466454438865185,-0.002123114885762334,1.0050585269927979,
21717,-0.0053038266487419605,-0.011617327108979225,1.0195114612579346,
21727,0.009413933381438255,0.0024702101945877075,0.9894720315933228,
21737,-0.006719545926898718,0.0011713918065652251,0.9933214783668518,
21747,-0.01662725768983364,-0.01910453662276268,1.017435908317566,
21757,-0.0014622836606577039,0.02036561444401741,0.9664880633354187,
21767,-0.007900881581008434,-0.0030321672093123198,1.0123382806777954,
21777,-0.020877329632639885,-0.007975662127137184,1.0008550882339478,
21787,0.004182326607406139,0.00042944186134263873,0.9990273714065552,
21797,0.00010964602552121505,0.00016790394147392362,1.019012689590454,
21807,0.007177052553743124,0.0006462768069468439,0.982909619808197,
21817,0.012031380087137222,0.01582091860473156,0.9764933586120605,
21827,-0.0032524012494832277,0.0038086476270109415,0.9828093647956848,
21837,-0.012392766773700714,0.018006328493356705,0.979059636592865,
21847,-0.00301519432105124,0.004400625359266996,1.0049020051956177,
21857,-0.014374621212482452,0.017472824081778526,0.9891296625137329,
21867,0.0002850156161002815,-0.004300867207348347,1.0026601552963257,
21877,-0.006527931895107031,-0.0021636830642819405,1.0296845436096191,
21887,0.006862619426101446,-0.008110538125038147,1.0059478282928467,
21897,-0.00371691957116127,-0.005764044355601072,1.0045521259307861,
21907,-0.0010340351145714521,-0.008693483658134937,1.0463615655899048,
21917,-0.006575398612767458,0.014728603884577751,0.9984368085861206,
21927,-0.00990966334939003,-0.01747828908264637,1.036553144454956,
21937,-0.014483674429357052,0.015684304758906364,1.001876711845398,
21947,-0.0037056345026940107,0.0035102965775877237,0.9988536834716797,
21957,-0.003272914094850421,-0.022688688710331917,1.021917700767517,
21967,-0.005109137389808893,0.04488281533122063,0.9871693849563599,
21977,-0.0017845365218818188,0.0050698863342404366,0.9764146208763123,
21987,-0.0073462496511638165,0.020281294360756874,1.0136330127716064,
21997,0.008805028162896633,0.003856285475194454,0.9896842241287231,
22007,-0.014746016822755337,-0.0049885972402989864,0.9736033082008362,
22017,0.00029742487822659314,0.0058017089031636715,1.0124022960662842,
22027,-0.002981048310175538,0.023345177993178368,0.9929344058036804,
22037,-0.0010775189148262143,-0.01795484684407711,0.9959107041358948,
22047,-0.001907559228129685,-0.007890907116234303,0.9984444975852966,
22057,0.01794813573360443,0.00860589649528265,0.9939267039299011,
22067,-0.015215422958135605,-0.0033916402608156204,0.9529516100883484,
22077,0.000577929022256285,0.004745630081743002,0.9907984137535095,
22087,-0.013045374304056168,-0.008081261068582535,1.015953540802002,
22097,-0.0017877639038488269,-0.010747866705060005,0.9940076470375061,
22107,0.0010202127741649747,-0.0016894044820219278,1.0284358263015747,
22117,0.01447028387337923,-0.0004713411326520145,0.9971222877502441,
22127,0.009217428974807262,-0.0015431942883878946,1.018962025642395,
22137,0.012906219810247421,0.0421995110809803,1.015091061592102,
22147,-0.007289341185241938,-0.0004928187699988484,0.938418447971344,
22157,-0.005998014472424984,-0.000498918117955327,0.9866474270820618,
22167,0.011460531502962112,0.01767771691083908,1.0151705741882324,
22177,0.008814159780740738,0.004755896981805563,0.9748947024345398,
22187,-0.028865190222859383,0.0038197473622858524,1.0009080171585083,
22197,0.0033811016473919153,0.00840222742408514,0.9906073212623596,
22207,0.001971599878743291,0.021575259044766426,0.9697490930557251,
22217,-0.004636193159967661,-0.027436934411525726,1.010893702507019,
22227,-0.008569519966840744,0.05430619791150093,0.9915844202041626,
22237,0.015213586390018463,-0.02397177554666996,1.0279338359832764,
22247,-0.023136580362915993,-0.03169982507824898,1.0225987434387207,
22257,0.04503588378429413,-0.025211434811353683,1.022742748260498,
22267,0.0003574131114874035,0.022144965827465057,0.9916108250617981,
22277,-0.02056841179728508,-0.0016836015274748206,0.9866582155227661,
22287,-0.008293680846691132,0.03518545255064964,0.9683089852333069,
22297,-0.01394218672066927,-0.002899810438975692,0.9947220087051392,
22307,-0.01715989224612713,0.0020613637752830982,1.011087417602539,
22317,0.002586130518466234,0.02032805047929287,0.9829733967781067,
22327,0.0005235016578808427,0.02313179522752762,0.9843549132347107,
22337,0.009304671548306942,0.0043998463079333305,1.0097012519836426,
22347,0.017341719940304756,-0.0042762295342981815,0.9878761768341064,
22357,-0.0005435761995613575,-0.004022467881441116,0.9879934787750244,
22367,-0.015760429203510284,0.015771858394145966,1.0150247812271118,
22377,0.0040711830370128155,-0.020900003612041473,1.0119346380233765,
22387,-0.003686070442199707,-0.033383265137672424,1.020094394683838,
22397,0.0044705807231366634,-0.014400992542505264,0.9872298836708069,
22407,0.0005177296698093414,-0.004210604354739189,0.9817822575569153,
22417,-0.0036988756619393826,0.006542422343045473,0.9930640459060669,
22427,-0.005840575322508812,-0.011578462086617947,0.9884132146835327,
22437,-0.002058121608570218,-0.020710233598947525,1.0034382343292236,
22447,-0.006857613567262888,-0.013841284438967705,1.024849534034729,
22457,0.009381177835166454,-0.015362176112830639,1.01310396194458,
22467,0.003976503387093544,-0.012576264329254627,1.017917275428772,
22477,-0.0020138281397521496,-0.0029808422550559044,1.0141708850860596,
22487,-0.010760866105556488,0.005728267598897219,0.9553396105766296,
22497,-0.011309392750263214,-0.023422222584486008,1.0066039562225342,
22507,-0.01438964158296585,0.04170405492186546,1.0180789232254028,
22517,-0.001872589229606092,-0.02242785319685936,0.9432635307312012,
22527,-0.01174179743975401,-0.019685788080096245,1.0260170698165894,
22537,0.01735568232834339,0.009971619583666325,1.0246224403381348,
22547,-0.014928387477993965,0.05418549105525017,0.9792264699935913,
22557,-0.006050725467503071,0.04469522833824158,1.015347957611084,
22567,0.011509325355291367,0.030613258481025696,1.046410083770752,
22577,0.015595171600580215,0.000488129910081625,0.9646560549736023,
22587,0.007809537462890148,0.0034671921748667955,1.01227605342865,
22597,0.0025764426682144403,0.09801530092954636,1.0145660638809204,
22607,-0.01923474855720997,0.000700073956977576,0.9829754829406738,
22617,-0.0025894385762512684,-0.00036452666972763836,1.0306789875030518,
22627,0.015384801663458347,0.00457786163315177,1.0058844089508057,
22637,-0.005336340516805649,0.017684035003185272,1.0144869089126587,
22647,0.004285122267901897,0.026771139353513718,1.0222738981246948,
22657,-0.006652493495494127,-0.005256106145679951,0.998591959476471,
22667,0.011391852982342243,-0.01106241624802351,1.005431890487671,
22677,0.0034942373167723417,0.009921868331730366,0.9711366295814514,
22687,-0.012708047404885292,-0.004227277357131243,0.9892432689666748,
22697,-0.01959207095205784,0.0431809239089489,1.0292167663574219,
22707,0.0028461464680731297,-0.002558971755206585,1.0008275508880615,
22717,-0.006734452676028013,-0.03282998874783516,1.0428516864776611,
22727,0.014914129860699177,-0.029823554679751396,1.0075615644454956,
22737,0.01241972390562296,0.04422418028116226,0.96898353099823,
22747,-0.0350869819521904,0.0022883890196681023,0.9915109276771545,
22757,-0.010119342245161533,-0.010754229500889778,0.9678020477294922,
22767,-0.0011701425537467003,0.017104020342230797,0.9962217807769775,
22777,-0.01772282086312771,-0.0025789213832467794,0.9992541074752808,
22787,-0.003361926879733801,0.0621495321393013,0.986311137676239,
22797,0.0017211586236953735,0.018182743340730667,0.9990754127502441,
22807,-0.029564671218395233,-0.009500637650489807,0.9857345819473267,
22817,0.01859002374112606,0.003524177707731724,0.972959041595459,
22827,-0.005532444920390844,0.012620413675904274,0.9804784059524536,
22837,-0.017854249104857445,-0.004813254810869694,1.0069880485534668,
22847,-0.01456493977457285,0.024784348905086517,0.9785876870155334,
22857,0.008202018216252327,-0.010809375904500484,1.030137300491333,
22867,0.007278370670974255,-0.018291939049959183,1.010227918624878,
22877,0.03959600627422333,-0.022848309949040413,1.020586371421814,
22887,-1.1891130270669237e-05,-0.0029920521192252636,1.0027340650558472,
22897,-0.005058848764747381,0.0027049495838582516,0.9971771240234375,
22907,-0.01112655270844698,0.01095188781619072,1.0157986879348755,
22917,-0.017426960170269012,-0.003279908560216427,1.0195833444595337,
22927,-0.009960583411157131,-0.0032973214983940125,1.0342546701431274,
22937,0.006609784904867411,0.008460633456707,1.0015370845794678,
22947,-0.005796451587229967,0.014234153553843498,1.0096861124038696,
22957,0.019141847267746925,0.01602516882121563,0.9699144959449768,
22967,0.0013224782887846231,0.02333872579038143,0.9978547692298889,
22977,-0.015321178361773491,0.010698509402573109,0.9931820631027222,
22987,-0.015818119049072266,0.03225836157798767,0.9848238825798035,
22997,-0.0069573805667459965,0.008218793198466301,1.0155298709869385,
23007,-0.011408473365008831,0.021041791886091232,0.9769237041473389,
23017,-0.0027618741150945425,0.004422122612595558,1.0023815631866455,
23027,-0.008643863722682,0.03801120072603226,0.986968994140625,
23037,-0.005712511949241161,0.010942050255835056,0.9973953366279602,
23047,-0.006221401505172253,0.03317151591181755,0.9728578329086304,
23057,-0.0008673975826241076,-0.0011915115173906088,1.0057448148727417,
23067,-0.017027974128723145,0.02070104330778122,1.0018956661224365,
23077,0.01505429856479168,-0.03419303148984909,1.0435833930969238,
23087,-0.00696919858455658,-0.0033863107673823833,1.0104877948760986,
23097,0.02273593097925186,-0.021246034651994705,1.0115818977355957,
23107,-0.0044786399230360985,7.208005990833044e-05,1.0079023838043213,
23117,0.0064127203077077866,-0.008433311246335506,1.000908613204956,
23127,-0.01713968813419342,0.015366284176707268,0.9723650217056274,
23137,-0.010283030569553375,-0.002441480290144682,1.0092140436172485,
23147,-0.014345867559313774,0.005539484787732363,1.0210521221160889,
23157,-0.0013578444486483932,-0.03040849231183529,0.9972348213195801,
23167,-0.01813802681863308,-0.010863205417990685,1.0184117555618286,
23177,-0.0029867494013160467,-0.012613778933882713,1.022479772567749,
23187,-0.00917672086507082,0.001846587983891368,1.0108519792556763,
23197,-0.005545544903725386,0.009561191312968731,0.9838594794273376,
23207,-0.009978597052395344,0.014583688229322433,0.9935543537139893,
23217,0.00020723362104035914,0.014496042393147945,1.0045884847640991,
23227,-0.005023903679102659,0.009589713998138905,1.004504919052124,
23237,-0.0038689756765961647,0.0024828340392559767,1.0127553939819336,
23247,-0.005393217317759991,-0.006356692407280207,1.0265107154846191,
23257,-0.001323590287938714,-0.01415156852453947,1.0050090551376343,
23267,-0.004259854555130005,0.01641186513006687,1.0026206970214844,
23277,-0.0059049855917692184,0.012424650602042675,0.9903302192687988,
23287,-0.008594425395131111,0.0024189723189920187,0.9865169525146484,
23297,0.0017314922297373414,0.019947702065110207,0.9946364760398865,
23307,0.0007646933081559837,-0.0030596398282796144,0.9875010251998901,
23317,0.004809812642633915,0.011192357167601585,1.0244383811950684,
23327,0.011373328045010567,0.006430346984416246,0.9951637387275696,
23337,-0.010380996391177177,-0.019260438159108162,1.0092617273330688,
23347,0.0005153228994458914,0.037349969148635864,1.0006060600280762,
23357,0.014628133736550808,0.01267111487686634,0.9667346477508545,
23367,-0.01009920984506607,-0.0011631220113486052,1.0154829025268555,
23377,0.023561561480164528,0.013925723731517792,1.0137195587158203,
23387,0.006709364242851734,0.003383803181350231,0.9707757830619812,
23397,0.019714083522558212,-0.007578553631901741,1.020432949066162,
23407,0.005039761308580637,0.041833117604255676,1.015312910079956,
23417,-0.008826198987662792,0.00245444243773818,1.0287519693374634,
23427,-0.0029454282484948635,0.03258883208036423,0.9894837737083435,
23437,0.028424112126231194,-0.00929860770702362,1.0457099676132202,
23447,0.0002085897431243211,-0.0294016283005476,1.0244431495666504,
23457,0.02316228486597538,-0.016567412763834,1.0176244974136353,
23467,-0.0049627963453531265,-0.0032086584251374006,0.9836280941963196,
23477,0.002777428599074483,0.04908264800906181,0.9856959581375122,
23487,-0.00352719658985734,0.04102741554379463,1.020586609840393,
23497,-0.02049139514565468,0.007250478025525808,0.9635095000267029,
23507,-0.005492874886840582,0.006350722163915634,1.026850700378418,
23517,-0.023673873394727707,-0.008121072314679623,1.0117077827453613,
23527,-0.015804482623934746,0.023996323347091675,1.0055028200149536,
23537,-0.00019915275333914906,0.05479862913489342,0.9925897121429443,
23547,-0.01224494818598032,0.021509796380996704,0.9980623126029968,
23557,0.010417177341878414,0.0007471617427654564,0.9984566569328308,
23567,0.009865647181868553,0.013312998227775097,0.9977291822433472,
23577,-0.005815780721604824,-0.0093085253611207,1.0118584632873535,
23587,0.009050422348082066,0.03008675016462803,1.0107353925704956,
23597,-0.00711400480940938,-0.010894705541431904,1.0116833448410034,
23607,-0.025960030034184456,0.003497364232316613,0.9797449111938477,
23617,0.0035914655309170485,0.006902514025568962,1.0002409219741821,
23627,-0.016063449904322624,-0.014061691239476204,1.0041249990463257,
23637,0.004437577445060015,-0.00361473485827446,0.9855629801750183,
23647,0.0015703990356996655,0.010490821674466133,0.9875777959823608,
23657,-0.01733843795955181,-0.018839078024029732,0.9902634620666504,
23667,0.0005746465758420527,-0.0035852433647960424,1.0078129768371582,
23677,0.01687222719192505,-0.008975177071988583,1.0230661630630493,
23687,-0.019516829401254654,-0.011664623394608498,1.001247763633728,
23697,0.011312372051179409,-0.013636586256325245,1.0073447227478027,
23707,-0.00010107191337738186,-0.0019625548738986254,0.9926751255989075,
23717,-0.0018460253486409783,-0.0021520517766475677,0.9898831844329834,
23727,-0.0040266080759465694,0.0012198420008644462,0.9987304210662842,
23737,-0.007391028106212616,-0.0013418251182883978,0.9844772219657898,
23747,-0.009864860214293003,0.006330962758511305,0.9891839027404785,
23757,-0.003743467852473259,0.01643110252916813,0.9720433950424194,
23767,-0.0062458389438688755,0.013976792804896832,0.9966364502906799,
23777,-0.0014999102568253875,0.024178003892302513,0.9702625870704651,
23787,0.000452975305961445,0.004949766211211681,0.9980666041374207,
23797,-0.004548545926809311,0.009586930274963379,0.9742979407310486,
23807,0.0034326817840337753,-0.006603205110877752,0.9889121651649475,
23817,0.009572205133736134,0.013841618783771992,1.0067965984344482,
23827,0.013975092209875584,0.014758097939193249,0.9892056584358215,
23837,0.004599913023412228,0.021708248183131218,0.9793802499771118,
23847,0.00735091045498848,0.007087437901645899,0.9826192259788513,
23857,0.0008877547224983573,0.004755083471536636,0.9865095019340515,
23867,0.00238128867931664,-0.03087521716952324,1.0027565956115723,
23877,0.003378096967935562,-0.006179791875183582,0.9987513422966003,
23887,0.00046073333942331374,-0.011469600722193718,0.9393831491470337,
23897,-0.008039752952754498,0.0007532041054219007,0.9964818954467773,
23907,0.023852001875638962,0.021439332515001297,0.9987874031066895,
23917,-0.006485792808234692,0.005206172354519367,0.9481678605079651,
23927,-0.018384810537099838,-0.013405431993305683,1.001327395439148,
23937,0.007339152507483959,0.051278676837682724,0.9945724010467529,
23947,-0.0019113828893750906,0.012138769030570984,0.9688308238983154,
23957,-0.010568540543317795,-0.003543286118656397,1.0200223922729492,
23967,0.01703200489282608,0.05371839553117752,0.9895898699760437,
23977,-0.0013851298717781901,0.007250132970511913,0.944175124168396,
23987,0.00783741008490324,0.006161774042993784,0.9927991032600403,
23997,0.018685346469283104,0.0373910553753376,1.0235936641693115,
24007,0.009822544641792774,0.0218958780169487,0.9965490698814392,
24017,0.001501715974882245,0.013621082529425621,1.0018157958984375,
24027,0.017089813947677612,0.01099698431789875,1.0171762704849243,
24037,0.007853137329220772,-0.0032651093788444996,0.9897482991218567,
24047,-0.006354731507599354,0.0016121366061270237,0.9977107048034668,
24057,-0.010817703790962696,0.0020130600314587355,1.010398268699646,
24067,-0.013029797933995724,0.005093064624816179,1.0019783973693848,
24077,0.0006787952152080834,0.01002494990825653,1.0179320573806763,
24087,-0.0024167634546756744,0.008241957053542137,0.9907789826393127,
24097,-0.011264434084296227,0.007146958261728287,0.9930061101913452,
24107,0.0031917307060211897,0.02635353058576584,0.9818791151046753,
24117,-0.009836842305958271,0.0047316476702690125,1.0098038911819458,
24127,-0.023729315027594566,0.007504284847527742,0.9819907546043396,
24137,-0.001914873137138784,0.009559158235788345,1.0106652975082397,
24147,-0.013280884362757206,0.022991979494690895,0.9548904299736023,
24157,0.003840459743514657,-0.0026387134566903114,0.9595842957496643,
24167,-0.001144257141277194,0.0014874973567202687,0.9748033285140991,
24177,-0.014511125162243843,0.010353967547416687,0.9796382188796997,
24187,0.010229568928480148,-0.01500802394002676,0.9620060324668884,
24197,-0.013406145386397839,-0.009614773094654083,0.9899895191192627,
24207,0.0007957560010254383,0.017303192988038063,0.9501721858978271,
24217,-0.019262434914708138,0.003695395076647401,0.9400179982185364,
24227,0.0013617889489978552,0.007260075770318508,0.9657630920410156,
24237,0.005187616683542728,0.0352458693087101,0.9721943736076355,
24247,-0.000478832283988595,0.0014263236662372947,0.9496158361434937,
24257,-0.001414687023498118,0.01761847548186779,0.9938023090362549,
24267,0.015756674110889435,0.005693553481251001,1.0076481103897095,
24277,-0.006584471091628075,-0.007164322771131992,0.9156662821769714,
24287,-0.004422576166689396,0.008378093130886555,0.9660192728042603,
24297,0.01082987617701292,0.028708379715681076,0.9981071949005127,
24307,0.007230532355606556,-0.009908425621688366,0.9628123044967651,
24317,0.0026624854654073715,0.002362174680456519,1.0062873363494873,
24327,0.031308699399232864,0.008800302632153034,1.0171796083450317,
24337,0.024988645687699318,-0.0026641893200576305,0.9695695638656616,
24347,-0.004407820291817188,0.0029621024150401354,1.0079057216644287,
24357,-0.010574945248663425,0.002758131129667163,1.0142607688903809,
24367,-0.008004030212759972,0.014540866017341614,0.987231969833374,
24377,-0.00395826855674386,0.014875730499625206,1.0059839487075806,
24387,0.005600500851869583,0.008925292640924454,1.0008180141448975,
24397,0.011919267475605011,-0.0018215938471257687,1.0190635919570923,
24407,0.02156120352447033,-0.010007224977016449,1.0259253978729248,
24417,-0.002348944079130888,0.0035817339085042477,1.0120619535446167,
24427,0.004328085109591484,0.016491170972585678,1.0144355297088623,
24437,-0.013951818458735943,0.014306781813502312,1.0343652963638306,
24447,0.003067971672862768,0.029593009501695633,0.9982537031173706,
24457,-0.004129501525312662,0.02053387276828289,1.029962420463562,
24467,-0.0017669787630438805,0.013782259076833725,1.0187046527862549,
24477,-0.009509921073913574,0.01720275729894638,0.9798586368560791,
24487,-0.0042080944404006,-0.01383888442069292,1.0326321125030518,
24497,-0.005689575336873531,0.015228751115500927,1.017014980316162,
24507,0.006029205396771431,-0.014105956070125103,1.027291178703308,
24517,-0.023791981860995293,0.03168582543730736,1.0707284212112427,
24527,-0.006475005764514208,-0.029261905699968338,0.9719187021255493,
24537,-0.006017294246703386,0.005659689661115408,1.02507483959198,
24547,0.002599091501906514,-0.0007619084790349007,1.0219035148620605,
24557,-0.023028889670968056,-0.023552989587187767,1.0190393924713135,
24567,-0.007729867938905954,0.0448918417096138,1.0178372859954834,
24577,0.004300739150494337,0.04598180949687958,1.0066505670547485,
24587,-0.007968693040311337,0.018925724551081657,1.023848533630371,
24597,0.007977253757417202,-0.018661722540855408,1.0518555641174316,
24607,0.008209291845560074,-0.027568060904741287,0.9926980137825012,
24617,0.023990603163838387,-0.017549140378832817,0.9901894330978394,
24627,-0.004503659438341856,0.04035758972167969,0.9965985417366028,
24637,0.00997199583798647,0.07226577401161194,0.9838137030601501,
24647,-0.026131372898817062,0.005283233243972063,1.009979009628296,
24657,-0.004184276331216097,-0.0191779974848032,0.9915602207183838,
24667,0.006223158910870552,-0.0016462242929264903,1.0083966255187988,
24677,0.0188913457095623,0.012161379680037498,0.9838699102401733,
24687,-0.0015975511632859707,0.045392900705337524,0.9857485294342041,
24697,-0.000502751034218818,0.012001771479845047,0.9737697243690491,
24707,-0.009474656544625759,0.007600884884595871,1.005704641342163,
24717,-0.0180958341807127,0.012719578109681606,0.9686492085456848,
24727,0.0021733723115175962,0.008260763250291348,1.003790020942688,
24737,-0.004358501173555851,0.005915699526667595,0.9954956769943237,
24747,-0.010692831128835678,0.018590373918414116,0.9628693461418152,
24757,-0.002385715488344431,0.01962851732969284,0.9481782913208008,
24767,-0.01109363790601492,0.022632021456956863,1.003986120223999,
24777,-0.007207039278000593,0.04029393196105957,0.9358188509941101,
24787,-0.0004890724667347968,0.016828369349241257,0.9823143482208252,
24797,-0.004992601927369833,0.020199613645672798,0.9906715154647827,
24807,-0.0027974569238722324,0.017081014811992645,0.968661367893219,
24817,-0.001148185576312244,0.0035939051304012537,0.9772538542747498,
24827,0.006154004018753767,0.036250047385692596,0.9931041598320007,
24837,0.010454154573380947,0.04312979057431221,0.9543084502220154,
24847,0.005219598766416311,0.044026196002960205,0.9742847084999084,
24857,0.014690447598695755,0.03694711998105049,0.9776074886322021,
24867,0.005624143872410059,0.003097112290561199,0.9670310616493225,
24877,-0.012763837352395058,-0.003913124091923237,0.9725757241249084,
24887,-0.0011265791254118085,0.07678467780351639,0.9654690623283386,
24897,0.004739747848361731,0.05820252373814583,0.9783263206481934,
24907,-0.01094517670571804,0.012961427681148052,1.0111215114593506,
24917,0.012031097896397114,0.014217044226825237,0.9949314594268799,
24927,0.01551411859691143,-0.008068712428212166,0.9615452885627747,
24937,-0.002848860574886203,-0.012576037086546421,0.9867772459983826,
24947,0.001996899489313364,0.038378555327653885,0.9955475330352783,
24957,-0.010657820850610733,0.06150754168629646,0.9823713302612305,
24967,-0.016443805769085884,0.0051512643694877625,1.0040671825408936,
24977,-0.016299977898597717,-0.01683746464550495,0.9830465912818909,
24987,0.023436345160007477,-0.016716904938220978,0.9847350716590881,
24997,0.011157123371958733,0.0015113576082512736,0.9915432333946228,
25007,-0.0056657553650438786,0.0050321160815656185,0.983097493648529,
25017,-0.02494840882718563,0.0017383695812895894,1.0171468257904053,
25027,0.0186917744576931,-0.025733307003974915,1.0054370164871216,
25037,-0.008792287670075893,-0.02283066138625145,1.0258073806762695,
25047,0.038950685411691666,-0.03526919707655907,1.015066385269165,
25057,0.002565275877714157,-0.004349699709564447,1.0205352306365967,
25067,0.0007274278323166072,-0.008736438117921352,1.0008264780044556,
25077,-0.006730823311954737,0.018118388950824738,0.9910516142845154,
25087,-0.014067155309021473,-0.01761806569993496,1.0109047889709473,
25097,-0.016217578202486038,0.022559644654393196,1.003271222114563,
25107,-0.0019284144509583712,-0.0010869064135476947,0.9949831366539001,
25117,-0.014706438407301903,0.03907681629061699,1.0264561176300049,
25127,-0.012633289210498333,-0.0029714456759393215,0.9884388446807861,
25137,-0.004827849566936493,-0.0031937514431774616,1.0101176500320435,
25147,-0.009101026691496372,0.00848380383104086,1.0008370876312256,
25157,-0.00816147681325674,0.04493765905499458,0.9419757127761841,
25167,-0.0021083832252770662,0.037579964846372604,0.9907594323158264,
25177,0.0028049228712916374,0.058942779898643494,0.9496645331382751,
25187,-0.009967423975467682,0.005455559119582176,0.9829671382904053,
25197,0.001995617523789406,0.01574888825416565,0.9786564111709595,
25207,-0.011104634031653404,-0.02505076676607132,1.0010147094726562,
25217,-0.024143662303686142,0.0198877714574337,0.9841263890266418,
25227,0.008949794806540012,0.06756790727376938,1.0013346672058105,
25237,-0.011274600401520729,0.023652898147702217,0.973447322845459,
25247,0.0039826491847634315,0.015038120560348034,0.9841483235359192,
25257,0.00722580635920167,0.02560981549322605,0.9526888132095337,
25267,-0.0182978305965662,-0.01239281427115202,0.991741955280304,
25277,-0.01212301291525364,0.07596897333860397,0.976227879524231,
25287,0.011422858573496342,0.06572820246219635,0.9920483231544495,
25297,-0.015516933985054493,0.025354046374559402,0.9763224720954895,
25307,0.012389013543725014,0.004828855395317078,1.0287156105041504,
25317,0.006869419943541288,0.029611270874738693,0.9719621539115906,
25327,0.003295543370768428,-0.021037140861153603,0.9998071789741516,
25337,-0.0022213177289813757,0.04336955398321152,0.9929240345954895,
25347,-0.0012053719256073236,0.016560152173042297,1.0023653507232666,
25357,-0.01450563408434391,0.015476353466510773,0.9889208078384399,
25367,0.03346718102693558,-0.02351239137351513,1.0615967512130737,
25377,0.026173168793320656,-0.004930643830448389,1.0146037340164185,
25387,0.04034458100795746,-0.02612566389143467,1.0349980592727661,
25397,0.009420710615813732,-0.003314413595944643,1.0040675401687622,
25407,0.006887828931212425,-0.007149328477680683,0.9958961606025696,
25417,-0.010102321393787861,0.025249555706977844,1.0026962757110596,
25427,0.0027976983692497015,0.009316899813711643,1.007516622543335,
25437,-0.03280123695731163,0.003049455815926194,1.0386505126953125,
25447,-0.008288819342851639,0.0024697815533727407,1.0147749185562134,
25457,-0.020082293078303337,0.005688122473657131,1.0254285335540771,
25467,0.005785787012428045,-0.021585693582892418,0.9955705404281616,
25477,-0.004597702529281378,-0.009783539921045303,1.013445258140564,
25487,-0.0018464985769242048,-0.009975867345929146,1.0174905061721802,
25497,-0.004562335088849068,-0.001911725732497871,1.0183460712432861,
25507,-0.01730186492204666,0.028909912332892418,0.9594465494155884,
25517,-0.014574681408703327,0.03131087124347687,0.9956881403923035,
25527,-0.010807964019477367,0.03948335722088814,0.9948994517326355,
25537,-0.019215712323784828,0.012636231258511543,0.9939813017845154,
25547,-0.0101394634693861,0.023104142397642136,0.9927964210510254,
25557,0.006627783644944429,0.010733578354120255,0.9950206875801086,
25567,-0.010594489052891731,-0.021202167496085167,1.0174001455307007,
25577,-0.0024132446851581335,0.03326568007469177,1.005002737045288,
25587,-0.006747334264218807,0.07052349299192429,0.9516746401786804,
25597,-0.017795151099562645,0.02031540870666504,0.9704504013061523,
25607,0.005988438613712788,0.07659991830587387,0.9921224117279053,
25617,-0.0070816208608448505,0.023273665457963943,0.9584600925445557,
25627,-0.017325596883893013,0.0036489504855126143,0.9765564799308777,
25637,0.012307252734899521,0.011560437269508839,1.0227512121200562,
25647,-0.023741597309708595,-0.015983304008841515,1.0335086584091187,
25657,-0.00750086922198534,0.03769145533442497,0.9974722266197205,
25667,0.011768375523388386,0.06592506170272827,1.0061371326446533,
25677,0.006901001092046499,0.006201931741088629,0.9971218109130859,
25687,0.02300412394106388,0.029115570709109306,0.9991129040718079,
25697,0.013469803147017956,0.013995940797030926,1.0173072814941406,
25707,-0.00973554328083992,0.011412866413593292,0.9838315844535828,
25717,0.0036509588826447725,0.018211552873253822,1.0096945762634277,
25727,-0.0018452220829203725,0.018063796684145927,1.01008939743042,
25737,-0.005603518337011337,0.019362933933734894,1.0079691410064697,
25747,0.021492501720786095,-0.019158151000738144,1.0256091356277466,
25757,0.01382311712950468,-0.0034110425040125847,1.0013700723648071,
25767,0.0009977702284231782,-0.004564760252833366,1.0072014331817627,
25777,-0.0038569453172385693,0.011887111701071262,0.99515700340271,
25787,0.006609085015952587,0.015243629924952984,0.9915498495101929,
25797,0.004263310693204403,-0.0017916420474648476,1.01615309715271,
25807,-0.0031497811432927847,-0.000565405236557126,1.007030963897705,
25817,-0.0075212144292891026,-0.0112318005412817,1.0181334018707275,
25827,-0.006788969039916992,-0.002029671333730221,1.0140435695648193,
25837,0.0019766371697187424,-0.014571906067430973,1.0226227045059204,
25847,-0.010531337931752205,-0.002480819122865796,1.0189754962921143,
25857,0.012332419864833355,-0.006529273930937052,1.0042476654052734,
25867,-0.004373014904558659,-0.0034395235124975443,1.0124534368515015,
25877,0.013031798414885998,0.0074513680301606655,1.0093159675598145,
25887,-0.008146698586642742,-0.005502361338585615,0.9876595139503479,
25897,0.002736808266490698,0.007626967038959265,1.0350686311721802,
25907,0.0029089779127389193,0.010446639731526375,1.0284161567687988,
25917,-0.006532554514706135,-0.008480727672576904,1.0013047456741333,
25927,0.001811876194551587,0.033313874155282974,1.0148303508758545,
25937,0.009619368240237236,0.002729816362261772,0.9915445446968079,
25947,-0.013780984096229076,0.0022864448837935925,1.0277055501937866,
25957,0.000328316556988284,-0.0008810245781205595,1.0270203351974487,
25967,-0.01425221748650074,-0.023012349382042885,1.00649094581604,
25977,0.01857699267566204,0.005661838687956333,0.9903849959373474,
25987,-0.0029945755377411842,0.010451950132846832,0.967072606086731,
25997,-0.01739339716732502,-0.009322884492576122,1.0037670135498047,
26007,0.006957437377423048,0.007534644100815058,1.0169532299041748,
26017,0.003805068088695407,-0.007377129979431629,0.9740330576896667,
26027,-0.04721178486943245,-0.012575914151966572,1.0317107439041138,
26037,0.004666563123464584,-0.006213135085999966,1.0318151712417603,
26047,0.015006828121840954,-0.0009560853941366076,0.9885557889938354,
26057,0.009232756681740284,0.01332070492208004,0.9895323514938354,
26067,-0.015986809507012367,-0.007935580797493458,1.019410490989685,
26077,-0.0058974046260118484,0.005576207768172026,1.011889934539795,
26087,-0.005328923463821411,-0.008367584086954594,1.0046614408493042,
26097,-0.01785023882985115,0.0026875955518335104,0.9959600567817688,
26107,0.014415689744055271,0.002322692424058914,0.9845316410064697,
26117,-0.0016976995393633842,-0.003640312235802412,0.9863933324813843,
26127,-0.0014091662596911192,-0.004835544619709253,0.9864523410797119,
26137,-0.0010986288543790579,0.014166254550218582,0.9837031960487366,
26147,0.0036899421829730272,-0.0049283308908343315,1.0159038305282593,
26157,-0.005308746825903654,0.006543975323438644,0.9872375726699829,
26167,-0.002030696952715516,-0.013174875639379025,1.008066177368164,
26177,-0.015676740556955338,0.027020618319511414,0.9832143187522888,
26187,0.0023999770637601614,0.011247863061726093,1.0041636228561401,
26197,-0.008510245941579342,0.016659080982208252,1.0048699378967285,
26207,0.005989205092191696,-0.0030034121591597795,1.0089153051376343,
26287,0.008584174327552319,-0.009644176810979843,1.0234349966049194,
26307,0.037346888333559036,-0.021377870813012123,1.033678650856018,
26317,-0.0037704193964600563,-0.016405504196882248,1.0071526765823364,
26327,-0.005377224646508694,0.04894895479083061,0.9964625239372253,
26377,0.015801656991243362,-0.012027984485030174,1.0000972747802734,
26387,-0.00021286983974277973,0.019920721650123596,0.9852631688117981,
26407,-0.010309050790965557,0.011771105229854584,0.9918519854545593,
26417,0.004590812139213085,0.006211929023265839,1.0122787952423096,
26427,-0.03145234286785126,-0.008865359239280224,0.9858688116073608,
26437,-0.01305024791508913,-0.00963326171040535,0.9949427247047424,
26447,-0.002638227306306362,-0.0014532228233292699,0.9826384782791138,
26457,-0.0071470895782113075,0.004115970805287361,0.9705104231834412,
26467,-0.004463704768568277,0.008367795497179031,0.9963845014572144,
26477,-0.008616866543889046,-0.002633030293509364,0.9861794710159302,
26487,-0.004490389488637447,-0.0019641630351543427,0.9890454411506653,
26497,0.005554570816457272,-0.005520172882825136,1.0154119729995728,
26507,0.004493359010666609,-0.004150294233113527,0.9993194341659546,
26517,0.0012763289269059896,0.006774211768060923,0.9875072836875916,
26527,0.004602652974426746,-0.01278037391602993,0.9991233944892883,
26537,-0.017661411315202713,0.020030787214636803,0.9888692498207092,
26547,-0.006918918341398239,0.010790186934173107,0.9911088943481445,
26557,-0.013326005078852177,0.010326131246984005,1.029882788658142,
26567,-0.0025345354806631804,-0.01369535457342863,1.0173625946044922,
26577,0.00015606636588927358,-0.008017373271286488,1.0180851221084595,
26587,-0.003024111269041896,0.01661285199224949,0.964117169380188,
26597,-0.020090635865926743,0.017997480928897858,0.9847322702407837,
26607,-0.005950409919023514,0.04911079257726669,0.9808511137962341,
26617,-0.014242413453757763,0.022040052339434624,0.9648599028587341,
26627,-0.016528774052858353,-0.01318322028964758,0.9835789799690247,
26637,0.010388556867837906,-0.005546642933040857,1.0092812776565552,
26647,0.007943255826830864,-0.0196390338242054,0.9762402176856995,
26657,-0.005742001812905073,-0.021133188158273697,0.9889744520187378,
26667,0.011012127622961998,0.05451732128858566,1.0030170679092407,
26677,-0.003513556206598878,-0.009976374916732311,1.0078704357147217,
26687,-0.004497427027672529,-0.010393277741968632,0.9700391888618469,
26697,0.030575376003980637,0.0012036197585985065,1.0017861127853394,
26707,-0.00797223299741745,-0.01790511980652809,1.0025954246520996,
26717,0.021620990708470345,0.011803924106061459,0.9857063293457031,
26727,0.001578358351252973,0.02995344065129757,0.9929426312446594,
26737,-0.016951560974121094,-0.003683120245113969,1.00440514087677,
26747,0.004296749364584684,0.025310898199677467,1.0058804750442505,
26757,0.0032810617703944445,0.007457991596311331,1.0072157382965088,
26767,-0.016860831528902054,-0.010922688990831375,0.9929732084274292,
26777,0.008793141692876816,0.0023822393268346786,1.0069924592971802,
26787,0.0014201946323737502,-0.0005274245631881058,0.9960637092590332,
26797,-0.008348807692527771,0.00238743145018816,1.0037963390350342,
26807,0.004632615018635988,0.000815436418633908,1.0124942064285278,
26817,4.4584816350834444e-05,0.005713529884815216,1.003522276878357,
26827,0.004011382814496756,-0.004930871073156595,1.003131628036499,
26837,-0.006780576426535845,0.0014947556192055345,1.0039194822311401,
26847,-0.003068397054448724,-0.0022167563438415527,0.991198718547821,
26857,0.0034044727217406034,0.024351146072149277,0.993614673614502,
26867,0.0018128299852833152,0.015795564278960228,0.9886724352836609,
26877,0.006849486846476793,0.031217996031045914,0.9754974246025085,
26887,0.006630175281316042,0.040564414113759995,1.0051379203796387,
26897,-0.00411282479763031,0.02110443264245987,0.9639160633087158,
26907,-0.005968440789729357,-0.008236629888415337,0.9871420860290527,
26917,-0.005237238947302103,0.02989392913877964,0.9749451279640198,
26927,-0.0013873468851670623,-0.006733273155987263,1.0104323625564575,
26937,0.0018554056296125054,0.04087240621447563,0.9912441968917847,
26947,0.014664330519735813,0.011062136851251125,0.9889642596244812,
26957,-0.023837652057409286,-0.007703297771513462,0.9833484888076782,
26967,0.017653489485383034,0.01426204014569521,1.0054194927215576,
26977,0.010161977261304855,0.0005695174913853407,0.9761398434638977,
26987,-0.018158983439207077,-0.01222712267190218,1.019607424736023,
26997,0.02076847106218338,0.055433765053749084,1.0208723545074463,
27007,0.006140719633549452,0.015666261315345764,0.9863318800926208,
27017,-0.008298682048916817,-0.0036595286801457405,1.0262401103973389,
27027,0.02136637270450592,0.02455151081085205,0.98048996925354,
27037,-0.0008975093369372189,-0.011700200848281384,0.9960018396377563,
27047,0.0014500460820272565,0.012932226061820984,0.9853424429893494,
27057,0.010034777224063873,-0.007577870041131973,1.0304179191589355,
27067,0.0006898794090375304,0.00041282441816292703,1.0139687061309814,
27077,3.638147245510481e-05,-0.003958617337048054,1.0104339122772217,
27087,-0.002434491878375411,-0.00019075277668889612,1.0044020414352417,
27097,0.004656651057302952,-0.006677198689430952,1.0059177875518799,
27107,-0.006172348279505968,-0.0060280063189566135,1.0196081399917603,
27117,0.0052040801383554935,0.010179080069065094,0.9815864562988281,
27127,-0.017413724213838577,0.009780355729162693,1.0034642219543457,
27137,-0.013288167305290699,0.0418049655854702,0.9598174691200256,
27147,-0.008354979567229748,0.01600698009133339,1.00368070602417,
27157,-0.010818018577992916,0.0017058124067261815,0.9995006322860718,
27167,-0.0034064489882439375,-0.007799067068845034,0.9942721724510193,
27177,-0.013478623703122139,-0.026855625212192535,1.0312598943710327,
27187,-0.0017003619577735662,0.005685319192707539,1.011322021484375,
27197,-0.006829776801168919,0.022143449634313583,0.9636451601982117,
27207,0.0003904166806023568,0.020950106903910637,0.9967895150184631,
27217,0.009837337769567966,0.034862276166677475,1.0106165409088135,
27227,-0.01124529168009758,-0.023984801024198532,0.961214005947113,
27237,-0.002470441162586212,0.0007835373398847878,1.0053842067718506,
27247,0.026178332045674324,0.014838620088994503,1.0133531093597412,
27257,0.0007920522475615144,-0.010718809440732002,1.0116525888442993,
27267,0.012791641987860203,0.0182961318641901,1.0014668703079224,
27277,0.0028321666177362204,0.02586943842470646,0.9727853536605835,
27287,-0.01687772013247013,0.003555005183443427,1.003522276878357,
27297,-0.007656312081962824,0.01452702283859253,0.9845337867736816,
27307,0.012260950170457363,-0.009791618213057518,0.9940991401672363,
27317,0.01279574353247881,-0.008435174822807312,1.0121104717254639,
27327,0.02128707990050316,-0.007004892453551292,0.9983451962471008,
27337,-0.0028546631801873446,-0.004764047916978598,0.9848749041557312,
27347,-0.0028311661444604397,0.007092577405273914,0.9817719459533691,
27357,-0.0012008091434836388,0.012091401033103466,0.9795339107513428,
27367,-0.008801596239209175,0.0056306845508515835,1.0049090385437012,
27377,-0.0018664695089682937,-0.013854353688657284,1.0060755014419556,
27387,-0.014185715466737747,0.002612854354083538,1.0205680131912231,
27397,0.01614401489496231,-0.004957953002303839,1.001091718673706,
27407,0.011474847793579102,-0.01473483070731163,0.9996408820152283,
27417,0.017112698405981064,0.0008623458561487496,0.9869301915168762,
27427,-0.01317028421908617,0.0022585969418287277,0.9565065503120422,
27437,-0.010631272569298744,-0.0037520835176110268,0.982068657875061,
27447,0.00016618713561911136,0.050693996250629425,0.9784887433052063,
27457,-0.0043390835635364056,-0.008406134322285652,0.9945303201675415,
27467,-0.0019328051712363958,0.03134297579526901,1.0195454359054565,
27477,0.02776467800140381,0.023362072184681892,0.9774097800254822,
27487,0.0007366170175373554,-0.011160803958773613,0.9709014296531677,
27497,0.011045804247260094,0.017177775502204895,1.0125309228897095,
27507,0.009829627349972725,0.012200559489428997,1.013316035270691,
27517,-0.013035370036959648,-0.02779543027281761,0.9880289435386658,
27527,0.006050588097423315,-0.002632282441481948,1.0096516609191895,
27537,0.003194959368556738,0.02947155572474003,0.9872782826423645,
27547,-0.01394144631922245,0.009226937778294086,0.9814847111701965,
27557,-0.009523941203951836,0.029892537742853165,0.9639896154403687,
27567,-0.01468722429126501,-0.003710529301315546,1.0092172622680664,
27577,0.0021557617001235485,-0.02083360217511654,0.9962303638458252,
27587,0.033795252442359924,-0.02253405749797821,1.007530689239502,
27597,0.003704171860590577,0.0016180217498913407,0.9907107949256897,
27607,0.0012067857896909118,-0.005678070709109306,0.9927939176559448,
27617,-0.0027417081873863935,-0.00879194401204586,0.989372730255127,
27627,-0.014633679762482643,-0.018207404762506485,1.0247390270233154,
27637,0.008633486926555634,-0.016585562378168106,1.004107117652893,
27647,-0.0014997243415564299,-0.007974682375788689,1.0011351108551025,
27657,0.0012283510295674205,0.010323332622647285,0.9916102290153503,
27667,0.007700047921389341,-0.0007470693089999259,0.9939510822296143,
27677,0.016511475667357445,-0.014110899530351162,1.0299088954925537,
27687,0.0035833518486469984,-0.005876191891729832,1.0123571157455444,
27697,-0.011989657767117023,-0.020471282303333282,1.0076123476028442,
27707,-0.006871605291962624,0.035177137702703476,0.978967010974884,
27717,-0.0040672277100384235,0.002510707126930356,0.9622064232826233,
27727,-0.008238162845373154,0.007127500604838133,1.0123412609100342,
27737,0.007282697595655918,0.026067592203617096,1.0018277168273926,
27747,-0.009981313720345497,-0.015910640358924866,0.9601997137069702,
27757,0.005187119822949171,0.006646495778113604,0.9985645413398743,
27767,0.01710635982453823,0.006220608483999968,1.0191420316696167,
27777,-0.011604161001741886,-0.027207378298044205,0.9891687035560608,
27787,0.006453974172472954,0.005649589467793703,0.9880156517028809,
27797,0.002310359152033925,0.02175004407763481,0.9932236671447754,
27807,-0.03926189988851547,-0.025385446846485138,1.0067901611328125,
27817,-0.012042121961712837,0.011768623255193233,0.9900562167167664,
27827,-0.008751140907406807,0.0091065289452672,0.9875321984291077,
27837,-0.00685466593131423,0.017966603860259056,1.0060677528381348,
27847,-0.011456155218183994,0.007936122827231884,0.999159038066864,
27857,-0.01186592411249876,0.01023905910551548,1.009995698928833,
27867,0.0006095592398196459,-0.008072665892541409,1.013440728187561,
27877,0.0031130181159824133,0.01962524838745594,0.9918449521064758,
27887,-0.0012479095021262765,0.0043929750099778175,0.9702056646347046,
27897,-0.007387156132608652,0.012458309531211853,0.9805727005004883,
27907,-0.0064019253477454185,0.007517477031797171,0.9965651035308838,
27917,0.00019428666564635932,-0.004740350879728794,0.9957088828086853,
27927,-0.0035072537139058113,0.007052730768918991,1.0353924036026,
27937,-0.005039691459387541,-0.0036323091480880976,1.034404993057251,
27947,-0.030687827616930008,-0.027803348377346992,1.034177541732788,
27957,0.009507997892796993,0.00776897557079792,1.0189777612686157,
27967,-0.0007258534897118807,0.007691283710300922,0.9678927659988403,
27977,-0.00037587160477414727,-0.01926797814667225,1.0196768045425415,
27987,0.0021489281207323074,0.04070643335580826,1.017883062362671,
27997,-0.006303955335170031,-0.014023728668689728,0.9714272618293762,
28007,-0.01770704798400402,0.024910155683755875,1.0028338432312012,
28017,0.029512660577893257,-0.019540665671229362,1.0280152559280396,
28027,-0.02315118908882141,-0.026395313441753387,1.0301228761672974,
28037,0.026113679632544518,-0.02068549022078514,1.0033053159713745,
28047,0.008416877128183842,0.010490448214113712,1.0003517866134644,
28057,-0.012612578459084034,-0.0255605336278677,1.012171745300293,
28067,-0.0094027454033494,0.0006593017023988068,1.0032843351364136,
28077,-0.020363708958029747,-0.004404877312481403,0.9958394169807434,
28087,-0.011470813304185867,0.005732506047934294,1.0108528137207031,
28097,-0.0041359891183674335,-0.011635812930762768,1.009012222290039,
28107,-0.015334867872297764,-0.006968090310692787,1.0126445293426514,
28117,0.00203840178437531,-0.01993779093027115,1.0146727561950684,
28127,-0.004380283411592245,-0.002448374405503273,1.005918264389038,
28137,-0.0047193425707519054,0.004294571932405233,0.9716774821281433,
28147,-0.0077438210137188435,-0.0024217942263931036,0.9908908009529114,
28157,-0.005020495504140854,-0.002588387578725815,1.0063056945800781,
28167,-0.0055259703658521175,-0.006476764567196369,0.9946035742759705,
28177,-0.00907426793128252,0.010955042205750942,1.0435048341751099,
28187,-0.009089608676731586,0.0020030031446367502,1.0494149923324585,
28197,-0.022428415715694427,-0.03663500398397446,1.0149575471878052,
28207,0.020159121602773666,-0.006794589571654797,1.0008774995803833,
28217,-0.0051772561855614185,0.01713082194328308,0.9634999632835388,
28227,-0.009937694296240807,-0.010796907357871532,0.9845013618469238,
28237,-0.0003489868831820786,0.060862693935632706,1.0157569646835327,
28247,0.017651401460170746,-0.01963084191083908,1.0137537717819214,
28257,-0.02831428125500679,-0.02411588467657566,1.0311250686645508,
28267,0.04891020432114601,-0.018602782860398293,1.0428426265716553,
28277,0.001830350374802947,-0.001565024838782847,1.0002517700195312,
28287,0.00014748772082384676,-0.008451500907540321,0.9921151399612427,
28297,0.0014965793816372752,0.014219433069229126,0.9882780909538269,
28307,-0.0008534283842891455,-0.018233435228466988,1.0172362327575684,
28317,-0.016457414254546165,-0.014332068152725697,1.0041778087615967,
28327,0.003536594333127141,-0.013936410658061504,1.0150190591812134,
28337,-0.0193914994597435,0.012364504858851433,1.0040366649627686,
28347,-0.004203600808978081,-0.007039139978587627,0.9974442720413208,
28357,0.00043092528358101845,0.00158238026779145,1.004502296447754,
28367,0.007618000730872154,0.002908118534833193,0.9839950203895569,
28377,-0.002682128921151161,-0.0016009031096473336,0.9865412712097168,
28387,0.004184228368103504,0.0037785752210766077,0.9993410706520081,
28397,0.0026860202196985483,-0.007458959706127644,0.9986692070960999,
28407,-0.0023204751778393984,-0.0158136785030365,1.0035096406936646,
28417,0.011793717741966248,0.010967554524540901,0.9849790930747986,
28427,-0.024208208546042442,-0.007771514356136322,1.0125432014465332,
28437,-0.01871194690465927,-0.007992338389158249,1.0154330730438232,
28447,0.011165518313646317,0.021456323564052582,0.9589979648590088,
28457,0.01497793197631836,-0.014464427717030048,0.9983652234077454,
28467,0.003191624768078327,0.033519625663757324,1.0124863386154175,
28477,0.007958677597343922,0.018987592309713364,0.9976472854614258,
28487,-0.02509734407067299,0.009428863413631916,0.9996405243873596,
28497,0.04877462610602379,-0.016502561047673225,1.0214651823043823,
28507,-0.0016582264797762036,-0.02266828715801239,1.0074025392532349,
28517,0.026029741391539574,-0.0129191679880023,1.004486322402954,
28527,0.0024026399478316307,0.006635250989347696,1.0043474435806274,
28537,0.004666094668209553,-0.00299002043902874,1.034828543663025,
28547,-0.004364486318081617,0.010803149081766605,1.0039703845977783,
28557,0.0005200937739573419,-0.0107100959867239,1.0187621116638184,
28567,-0.012899394147098064,0.007612756919115782,1.0154112577438354,
28577,-0.003963534254580736,-0.011278627440333366,1.00095796585083,
28587,-0.011825362220406532,0.00474412040784955,1.0478484630584717,
28597,-0.008399318903684616,-0.0034793904051184654,1.0168027877807617,
28607,-0.015475045889616013,-0.016920698806643486,1.0342110395431519,
28617,0.002538299188017845,-0.0035541898105293512,1.0160268545150757,
28627,-0.0058184172958135605,0.005970627535134554,0.982725203037262,
28637,0.008966386318206787,0.02408117614686489,1.0079387426376343,
28647,-0.00016666621377225965,0.02476484887301922,1.0047236680984497,
28657,0.0024636967573314905,-0.004701652098447084,0.9621947407722473,
28667,0.002942209132015705,0.005269110668450594,1.024849534034729,
28677,-0.020887184888124466,-0.016636503860354424,1.0114456415176392,
28687,-0.014917888678610325,0.011222709901630878,0.9919514656066895,
28697,0.006242369767278433,0.0402725450694561,1.014855980873108,
28707,-0.0035538601223379374,0.016630614176392555,0.9847448468208313,
28717,0.025403235107660294,-0.010369319468736649,1.024248480796814,
28727,0.014133193530142307,0.02447272464632988,0.980901837348938,
28737,-0.006869192700833082,0.0016795250121504068,0.9990727305412292,
28747,-0.0014895366039127111,0.022233489900827408,1.005170226097107,
28757,0.004120426718145609,-0.008594796992838383,0.9978613257408142,
28767,-0.026102958247065544,0.011315569281578064,0.9850067496299744,
28777,0.008303037844598293,-0.01768142729997635,0.9755873084068298,
28787,-0.005542592611163855,0.007026547100394964,1.0039763450622559,
28797,0.013123763725161552,0.0017086203442886472,0.9858414530754089,
28807,-0.014578558504581451,-0.007470729295164347,0.9638195037841797,
28817,-0.01026455033570528,-0.0022871126420795918,0.9814499020576477,
28827,-0.003267139894887805,0.001763386302627623,0.9918094873428345,
28837,-0.002435811795294285,-0.004610416013747454,1.0092569589614868,
28847,0.009389524348080158,0.023043891414999962,0.995853841304779,
28857,-0.006745492108166218,-0.00026338567840866745,0.9912177324295044,
28867,0.005753519479185343,-0.01091779861599207,0.9922804832458496,
28877,0.023138388991355896,0.013396110385656357,1.0094327926635742,
28887,-0.011567226611077785,-0.008349291980266571,1.0015307664871216,
28897,-0.01110457070171833,0.01916133053600788,0.9901876449584961,
28907,-0.0002424378617433831,0.05213006213307381,1.0100418329238892,
28917,-0.011861407198011875,0.01356933917850256,0.9850053787231445,
28927,0.018270788714289665,-0.0033806024584919214,1.022676706314087,
28937,0.01621151715517044,0.012379036284983158,0.9606854915618896,
28947,-0.004462909419089556,-0.01288560125976801,0.9999061822891235,
28957,-0.010059010237455368,0.015894120559096336,1.0112478733062744,
28967,0.010812144726514816,-0.005214029457420111,1.0065994262695312,
28977,-0.028696926310658455,-0.0040796115063130856,1.0124108791351318,
28987,0.005129682831466198,-0.006250249221920967,0.9994521141052246,
28997,-0.022189902141690254,-0.0013569456059485674,1.0209550857543945,
29007,0.0022384682670235634,0.0005740359774790704,1.002890944480896,
29017,-0.015289016999304295,-0.000291519972961396,0.9719446301460266,
29027,0.007660931441932917,0.004769343417137861,1.0229816436767578,
29037,0.0008960305713117123,0.01079491525888443,1.0247317552566528,
29047,-0.005003131926059723,-0.012666983529925346,0.9965192675590515,
29057,-0.00796173419803381,0.02099459432065487,1.052443265914917,
29067,-0.012531138956546783,-0.006609296426177025,1.02281653881073,
29077,-0.023646559566259384,-0.029657449573278427,1.016597032546997,
29087,0.025864480063319206,0.009353524073958397,1.014060139656067,
29097,0.0018563194898888469,0.008114227093756199,0.9877673387527466,
29107,-0.016352714970707893,-0.012635881081223488,0.9961206912994385,
29117,-0.004836678970605135,0.03072488307952881,0.9711230397224426,
29127,0.002653043484315276,-0.006110481917858124,1.0056812763214111,
29137,0.007475929334759712,-0.012300762347877026,1.0042600631713867,
29147,0.03275317698717117,-0.0076529053039848804,1.0059008598327637,
29157,0.005782187916338444,0.021854307502508163,1.0060170888900757,
29167,0.0014891051687300205,-0.003488273127004504,0.9875837564468384,
29177,-0.0030797680374234915,-0.017969077453017235,1.0162794589996338,
29187,0.02155640907585621,-0.02465794049203396,0.9835023283958435,
29197,0.007029169704765081,-0.024590833112597466,0.9908778667449951,
29207,-0.0007905978127382696,-0.010621119290590286,1.0097973346710205,
29217,-0.004925464745610952,0.006330788601189852,0.9752042293548584,
29227,-0.0097880894318223,0.017936786636710167,0.9551318287849426,
29237,-0.001857797265984118,0.004552784375846386,0.9843321442604065,
29247,-0.008252239786088467,0.033305127173662186,0.9866943955421448,
29257,-0.0033470946364104748,-0.001708302297629416,0.9730353355407715,
29267,-0.010845419950783253,-0.011900855228304863,1.0181231498718262,
29277,0.007554327603429556,0.018807165324687958,0.9900866746902466,
29287,-0.006173731293529272,0.004608960822224617,0.9472099542617798,
29297,-0.010133611038327217,0.004131761379539967,1.0037622451782227,
29307,0.009375227615237236,0.04799015074968338,0.9889078140258789,
29317,-0.006170904263854027,0.020651452243328094,0.9916677474975586,
29327,-0.014767106622457504,0.014099537394940853,1.0259915590286255,
29337,0.004158434458076954,0.0038702876772731543,1.0240919589996338,
29347,-0.0061921607702970505,-0.027087394148111343,0.9833142757415771,
29357,0.015323574654757977,-0.006627279333770275,1.0075737237930298,
29367,0.005287317559123039,0.030807996168732643,1.0051759481430054,
29377,-0.005170183721929789,-0.020723992958664894,0.9562988877296448,
29387,-0.006625182460993528,0.005573662929236889,1.0174918174743652,
29397,0.010842946358025074,-0.005869072861969471,0.9944765567779541,
29407,-0.015145404264330864,0.012370866723358631,0.9893738031387329,
29417,-0.0008582534501329064,0.017811385914683342,0.99427729845047,
29427,0.0012336522340774536,0.025866322219371796,0.986608624458313,
29437,-0.006979216821491718,0.0169703159481287,0.9951589703559875,
29447,0.0007742485613562167,0.019529275596141815,0.9767642617225647,
29457,0.003821245627477765,0.0036283100489526987,1.0026087760925293,
29467,-0.0008419098448939621,0.017885837703943253,1.003499984741211,
29477,0.001951732556335628,-0.01952434703707695,1.019757866859436,
29487,-0.017740802839398384,0.011700188741087914,0.9955257177352905,
29497,0.0011946430895477533,-0.0036810897290706635,0.9939897060394287,
29507,-0.00022840057499706745,-0.002448529005050659,1.0026730298995972,
29517,0.014400176703929901,0.018291624262928963,0.9882152080535889,
29527,-0.010783401317894459,0.0008944423170760274,0.9547640681266785,
29537,-0.008496859110891819,-0.00798019114881754,0.9961230754852295,
29547,-0.0031329893972724676,0.010685903020203114,1.0247771739959717,
29557,-0.013079694472253323,-0.02961677871644497,1.0077695846557617,
29567,-0.007062808610498905,0.008488161489367485,1.014533281326294,
29577,0.005786506924778223,-0.0009559313184581697,1.0368834733963013,
29587,0.00884099118411541,-0.017169585451483727,1.0153143405914307,
29597,0.02180033177137375,-0.007782126311212778,1.0130070447921753,
29607,0.0002202644245699048,0.03821423649787903,1.0002503395080566,
29617,-0.016421906650066376,0.01846352033317089,1.0122920274734497,
29627,-0.0021336639765650034,0.04450209438800812,0.9518622159957886,
29637,0.0098738893866539,-0.002043867250904441,1.0017274618148804,
29647,0.010897251777350903,0.032162949442863464,1.019635796546936,
29657,0.007815541699528694,0.06692243367433548,1.020921230316162,
29667,-0.03203454613685608,0.0002161193115171045,0.9927198886871338,
29677,-0.00011319818440824747,-0.004998904187232256,1.011164665222168,
29687,0.0033589713275432587,-0.0074406759813427925,0.9913625121116638,
29697,0.00034378888085484505,-0.0034214244224131107,0.9947488903999329,
29707,-0.0005138239357620478,0.004027392715215683,0.9895032644271851,
29717,-0.001176599645987153,-0.003947623539716005,1.0198218822479248,
29727,-0.011692164465785027,0.0014444587286561728,1.0068413019180298,
29737,0.0010025771334767342,-0.03152108192443848,1.0159152746200562,
29747,-0.006670059636235237,0.008525997400283813,1.0148998498916626,
29757,0.005866574123501778,-0.017387736588716507,1.0186582803726196,
29767,-0.00890172179788351,-0.023704003542661667,1.0283528566360474,
29777,0.02872205711901188,-0.012712017633020878,1.030082106590271,
29787,0.007822585292160511,0.004548707511276007,1.0171935558319092,
29797,-0.006905954796820879,0.02390412427484989,1.0162081718444824,
29807,-0.0009644559468142688,0.04017806053161621,0.99234938621521,
29817,-0.011384909972548485,-0.0038878642953932285,0.9673379063606262,
29827,-0.004460355266928673,0.0185558944940567,0.9771242141723633,
29837,0.004200681112706661,0.06292510777711868,0.9700732827186584,
29847,0.0092953285202384,0.012707382440567017,0.9904864430427551,
29857,0.01578749716281891,-0.007797546684741974,1.0030295848846436,
29867,-0.0032156507950276136,-0.004687309730798006,0.9632744789123535,
29877,-0.008540002629160881,0.001824548584409058,0.9462624192237854,
29887,0.003284868784248829,0.061828501522541046,0.9667392373085022,
29897,-0.004469342529773712,0.014107272028923035,0.9657706022262573,
29907,-0.009458997286856174,-0.01359471119940281,0.9559018015861511,
29917,0.0022337923292070627,0.027725737541913986,0.9834251999855042,
29927,0.01604476384818554,0.02088817209005356,0.9802200794219971,
29937,-0.029589766636490822,-0.01466073002666235,1.0155338048934937,
29947,0.0048185354098677635,-0.029686003923416138,0.9786543846130371,
29957,0.013936595059931278,0.012425071559846401,0.9976920485496521,
29967,-0.00613418547436595,-0.00019307006732560694,1.0174551010131836,
29977,-0.013794711790978909,0.017807098105549812,0.96657794713974,
29987,-0.0012757463846355677,-0.001603717915713787,0.9934369921684265,
29997,-0.024538671597838402,0.019624967128038406,0.9902276992797852,
30007,-0.006197007372975349,0.005722678266465664,0.9924991130828857,
30017,0.0011037461226806045,0.021471412852406502,0.9581969380378723,
30027,0.0009711829479783773,0.01211866270750761,0.9740613102912903,
30037,-0.00858322810381651,0.028905995190143585,0.9523962736129761,
30047,-0.005049239844083786,-0.004104041028767824,0.9809226393699646,
30057,-0.010874636471271515,-0.0049859387800097466,1.0156482458114624,
30067,0.006643155124038458,0.00017943905550055206,0.9642670154571533,
30077,-0.0014621028676629066,-0.0033671194687485695,0.9871715307235718,
30087,-0.0010749964276328683,0.0006018869462423027,1.0174591541290283,
30097,-0.004119861871004105,0.030795831233263016,0.9999762773513794,
30107,-0.007485044654458761,0.0005219599697738886,1.009938359260559,
30117,-0.0012857960537075996,-0.0036053420044481754,1.0124751329421997,
30127,0.02040443941950798,-0.030519789084792137,1.0319349765777588,
30137,0.02089955471456051,-0.029765205457806587,1.0348435640335083,
30147,0.016195857897400856,0.03533993288874626,1.009922742843628,
30157,-0.017466971650719643,-0.001936625805683434,0.9875282645225525,
30167,-0.027912570163607597,-0.023003866896033287,0.9821869730949402,
30177,0.017609838396310806,0.0012195437448099256,1.0094085931777954,
30187,0.005354117602109909,-0.015107880346477032,0.9961644411087036,
30197,-0.0156426802277565,0.016671346500515938,0.9818391799926758,
30207,0.0008352941367775202,0.040795791894197464,1.0166378021240234,
30217,0.004314814694225788,-0.01636572554707527,0.9661093354225159,
30227,-0.024921860545873642,-0.02208103984594345,0.9940154552459717,
30237,0.030140463262796402,0.0012741871178150177,0.9894124865531921,
30247,0.0034103021025657654,-0.0049721840769052505,0.9922442436218262,
30257,-0.005381843075156212,-0.020921427756547928,1.0067002773284912,
30267,-2.0323630451457575e-05,-0.0017180590657517314,0.989463210105896,
30277,-0.0007968931458890438,-0.017764288932085037,1.0164153575897217,
30287,-0.004196723457425833,0.0034297287929803133,0.9870476126670837,
30297,0.006528340745717287,-0.015429124236106873,1.0139200687408447,
30307,0.00397943751886487,-0.00605438556522131,0.9955804347991943,
30317,0.011608308181166649,-0.016683300957083702,1.0087939500808716,
30327,-0.0066840071231126785,-0.03328639641404152,1.003301739692688,
30337,0.0017333278665319085,-0.0008973992080427706,1.0191673040390015,
30347,-0.005757154896855354,-0.01843082532286644,0.9803943037986755,
30357,-0.003921966999769211,-0.025605781003832817,1.0006248950958252,
30367,0.011387251317501068,0.00462373299524188,0.9995555877685547,
30377,-0.008170906454324722,-0.00026983467978425324,0.9690231084823608,
30387,-0.0162882748991251,-0.02329665794968605,0.9851019978523254,
30397,0.00017828799900598824,0.01583387702703476,1.0155611038208008,
30407,0.008168023079633713,-0.005930291023105383,0.9556267261505127,
30417,-0.02659922093153,-0.03237323462963104,1.0102893114089966,
30427,0.02169550023972988,0.003020654199644923,1.0086212158203125,
30437,-0.006373196374624968,0.003605207893997431,0.956258237361908,
30447,-0.0002031189651461318,-0.0019946142565459013,0.984719455242157,
30457,0.0043846904300153255,0.07702115923166275,1.0420920848846436,
30467,-0.012562538497149944,-0.008667821064591408,0.9899150133132935,
30477,-0.03145505115389824,-0.022751091048121452,1.0492419004440308,
30487,0.010972203686833382,-0.0056854672729969025,0.9995450377464294,
30497,-0.0004594906640704721,0.031247148290276527,1.0087538957595825,
30507,-0.008737416937947273,-0.007839387282729149,0.9860079288482666,
30517,0.013738668523728848,-0.0022256767842918634,1.012803316116333,
30527,0.004470929969102144,-0.005069703795015812,0.9921892285346985,
30537,-0.012335595674812794,0.007839043624699116,1.0067461729049683,
30547,-0.007250535301864147,-0.0005249055684544146,1.0075056552886963,
30557,-0.012083407491445541,-0.004542943090200424,1.0053296089172363,
30567,0.006281821522861719,-0.012069250456988811,1.0224274396896362,
30577,-0.003282103454694152,-0.009741006419062614,1.0373834371566772,
30587,0.0155461011454463,-0.005311843007802963,1.0058128833770752,
30597,0.00041025574319064617,0.008252765983343124,1.0155246257781982,
30607,0.004494459833949804,-0.0021426547318696976,1.0407756567001343,
30617,-0.010073017328977585,-0.002549084834754467,1.0202316045761108,
30627,0.00252603180706501,-0.04255976900458336,1.0018061399459839,
30637,0.0052160159684717655,-0.006912959273904562,1.0411951541900635,
30647,-0.007546385750174522,-0.032762784510850906,0.9858376383781433,
30657,-0.011212361045181751,-0.0025210040621459484,1.0198683738708496,
30667,0.0034773768857121468,0.021117426455020905,0.9800965785980225,
30677,-0.000309567287331447,-0.0004239625995978713,0.9711602926254272,
30687,-0.002384868683293462,0.007615855894982815,1.0114634037017822,
30697,0.012011617422103882,0.023174531757831573,0.9865944981575012,
30707,-0.00563256349414587,-0.004036882892251015,0.9978037476539612,
30717,0.003648489248007536,0.011530387215316296,1.0203351974487305,
30727,0.013451929204165936,0.02521391026675701,1.0117833614349365,
30737,0.0005685710348188877,-0.0059410580433905125,1.0119980573654175,
30747,0.01455854345113039,0.018304690718650818,1.0152350664138794,
30757,0.003941894508898258,-0.009245953522622585,1.0047776699066162,
30767,0.015504132956266403,-0.016982464119791985,1.0282142162322998,
30777,0.029907969757914543,-0.017347335815429688,1.0178313255310059,
30787,-0.010576852597296238,-0.001645379583351314,0.9725753664970398,
30797,0.011613386683166027,0.042260631918907166,1.0016019344329834,
30807,-0.02050822600722313,-0.019190484657883644,0.9847335815429688,
30817,-0.01384983491152525,-0.024553747847676277,1.0161350965499878,
30827,-0.0037108089309185743,-0.0013719112612307072,1.0042486190795898,
30837,0.006929546594619751,0.03501453623175621,0.9894845485687256,
30847,-0.030061958357691765,-0.016775958240032196,0.9998356103897095,
30857,-0.0036144531331956387,-0.020199254155158997,0.9801164865493774,
30867,0.011095614172518253,0.013018411584198475,1.0085923671722412,
30877,-0.010896370746195316,-0.0054114991798996925,1.0106042623519897,
30887,0.0025941880885511637,0.00974147580564022,0.9887782335281372,
30897,0.015449874103069305,0.015799369663000107,1.0113606452941895,
30907,0.0008929451578296721,-0.005342370364814997,0.9961183667182922,
30917,-0.001199197955429554,-0.005102841649204493,1.0093867778778076,
30927,-0.0031325367745012045,0.008788647130131721,0.9999492168426514,
30937,-0.002796697895973921,0.0025435280986130238,0.9954107999801636,
30947,-0.008749145083129406,0.004283540416508913,0.9875032901763916,
30957,0.0016800531884655356,-0.007658780552446842,1.0103068351745605,
30967,0.019675498828291893,-0.00612863851711154,1.012059211730957,
30977,0.01278676651418209,-0.020275933668017387,1.0159555673599243,
30987,0.0038580673281103373,-0.012261341325938702,1.0230497121810913,
30997,0.0011824668617919087,-0.0013212759513407946,1.0161205530166626,
31007,-0.003635141532868147,-0.021181117743253708,1.0205637216567993,
31017,-0.009039951488375664,-0.007859775796532631,1.020319938659668,
31027,0.0038831511046737432,-0.013600588776171207,0.9760617017745972,
31037,0.006016189232468605,-0.026160329580307007,0.9873771667480469,
31047,0.00041961902752518654,0.0014415436889976263,1.0244373083114624,
31057,0.0010286434553563595,0.01585133746266365,0.9838703274726868,
31067,-0.020854486152529716,-0.03344736993312836,0.995542049407959,
31077,-0.014178045094013214,-0.01374292466789484,0.9762842655181885,
31087,0.028530361130833626,0.019951244816184044,1.0103509426116943,
31097,0.00860640686005354,-0.013125279918313026,0.9890082478523254,
31107,0.0007587409927509725,0.00862561073154211,1.0066348314285278,
31117,0.009645125828683376,0.03527725860476494,0.9974694848060608,
31127,-0.006096492987126112,-0.013905290514230728,0.9422345757484436,
31137,-0.010997824370861053,-0.022559115663170815,0.9792448878288269,
31147,0.005825151689350605,0.03390609472990036,0.9921141862869263,
31157,0.0030970487277954817,0.05733899399638176,0.9534815549850464,
31167,-0.016632556915283203,-0.004173849243670702,0.9593773484230042,
31177,-0.0025898320600390434,0.0038971914909780025,0.9428398013114929,
31187,-0.004898250102996826,0.006778562441468239,0.9772372245788574,
31197,-0.019934961572289467,0.017589323222637177,0.9857764840126038,
31207,-0.0005680614267475903,-0.00813982728868723,0.9824010729789734,
31217,0.01291927881538868,-0.006324828136712313,0.9985387921333313,
31227,-0.0036078952252864838,0.0016734848031774163,0.9768412709236145,
31237,-0.002300974680110812,0.005728888791054487,0.9819954633712769,
31247,-0.0018302639946341515,-0.005550065077841282,1.0074361562728882,
31257,-0.008344764821231365,-0.005666540004312992,0.9954158663749695,
31267,0.0008619215805083513,-0.0059757595881819725,0.9942328929901123,
31277,-0.0023639805149286985,0.0004743466852232814,1.0043264627456665,
31287,0.007340462412685156,0.009981158189475536,0.9808785319328308,
31297,-0.00451758224517107,0.005354149267077446,0.9820829033851624,
31307,-0.0016268492909148335,-0.009562582708895206,1.0348200798034668,
31317,-0.003224719548597932,0.012982633896172047,0.992338240146637,
31327,0.008506768383085728,-0.03304578736424446,1.0256811380386353,
31337,-0.014962587505578995,-0.009936762042343616,1.039729356765747,
31347,0.021085817366838455,-0.0198737233877182,1.006759524345398,
31357,-0.018216410651803017,-0.02545209601521492,1.0272313356399536,
31367,0.001554694608785212,0.01398779358714819,1.0348490476608276,
31377,-0.0034891804680228233,0.045913971960544586,0.9952932596206665,
31387,-0.008043036796152592,-0.01686191000044346,0.9985510110855103,
31397,-0.0024243653751909733,0.00705996947363019,0.9699495434761047,
31407,-0.004389757756143808,-0.0011691749095916748,1.001993179321289,
31417,0.004538461100310087,0.033898528665304184,1.0019145011901855,
31427,0.008287964388728142,0.027529731392860413,0.9973780512809753,
31437,-0.02817405015230179,0.001740069012157619,0.984126627445221,
31447,-0.003569119842723012,-0.0013527189148589969,1.0083799362182617,
31457,0.005733102560043335,0.010041077621281147,0.9977421760559082,
31467,-0.01845368929207325,-0.014112521894276142,1.0112751722335815,
31477,-0.001672882935963571,0.03500189259648323,1.0066840648651123,
31487,-0.002068911213427782,0.012752625159919262,0.9958925843238831,
31497,-0.017238864675164223,0.018731234595179558,0.973007082939148,
31507,0.029189353808760643,-0.01951775513589382,1.0040816068649292,
31517,0.0035868543200194836,0.022648559883236885,0.979798436164856,
31527,0.0016657626256346703,0.0031511324923485518,0.9831461906433105,
31537,-0.01349009107798338,0.007835842669010162,1.006519079208374,
31547,0.008348592557013035,-0.03344740718603134,1.0317652225494385,
31557,-0.01061229407787323,-0.0014939391985535622,1.0034030675888062,
31567,0.00970317330211401,-0.013234269805252552,0.9852374792098999,
31577,-0.003814556635916233,-0.0066880108788609505,0.9987961053848267,
31587,0.004889135714620352,0.00547254690900445,1.007487416267395,
31597,-0.00595750892534852,-0.010728377848863602,0.9873219728469849,
31607,-0.004638331942260265,-0.0202608834952116,1.000562310218811,
31617,-0.005495777819305658,-0.002982393139973283,0.9933885931968689,
31627,0.001101111643947661,-0.008967609144747257,0.9793334603309631,
31637,0.00610673613846302,-0.004580195527523756,1.0182613134384155,
31647,0.01196043100208044,-0.004184226971119642,0.9844076633453369,
31657,0.015265246853232384,-0.032428715378046036,0.9809444546699524,
31667,0.006667809560894966,0.0338720828294754,1.0227794647216797,
31677,0.0077558644115924835,0.062157899141311646,0.9817023873329163,
31687,-0.03467538207769394,-0.031133854761719704,1.016717553138733,
31697,0.02114814706146717,-0.006205893121659756,1.0145920515060425,
31707,0.013842787593603134,-0.005557116586714983,0.9768381118774414,
31717,-0.0077757141552865505,0.007650725077837706,0.985040545463562,
31727,-0.00042112619848921895,0.027941182255744934,1.0280847549438477,
31737,0.0062561314553022385,-0.010925176553428173,0.9702526926994324,
31747,-0.02356039732694626,-0.01737884245812893,1.0161696672439575,
31757,0.03556285798549652,0.002434356836602092,0.9919257760047913,
31767,0.001168231712654233,-0.004856556188315153,1.009367823600769,
31777,-0.008905399590730667,-0.013235390186309814,1.0137311220169067,
31787,0.0013513271696865559,0.002055231248959899,0.9930264949798584,
31797,0.01438151765614748,-0.04049523174762726,1.0272886753082275,
31807,0.01314297690987587,-0.022503694519400597,1.0030509233474731,
31817,0.025072921067476273,-0.023504583165049553,1.0176786184310913,
31827,-0.004113038536161184,-0.011794214136898518,0.9955687522888184,
31837,-0.00508096581324935,0.0006043111789040267,0.9772353172302246,
31847,-0.0009376973030157387,0.0042677391320466995,1.0008299350738525,
31857,-0.007847437635064125,0.010164642706513405,0.9984878897666931,
31867,-0.008737478405237198,0.008876606822013855,0.9810006618499756,
31877,-0.01255517266690731,-0.012165459804236889,1.0145145654678345,
31887,0.008945112116634846,0.0006117852171882987,0.9690002202987671,
31897,0.005676498636603355,0.006861405912786722,0.9712560176849365,
31907,0.005313053261488676,-0.002526205964386463,1.0321532487869263,
31917,-0.0030086920596659184,0.015746165066957474,1.007206916809082,
31927,-0.015690889209508896,-0.036671362817287445,1.0011913776397705,
31937,-0.017370525747537613,0.005312857683748007,1.0147323608398438,
31947,0.019025806337594986,-0.0034711880143731833,1.0329352617263794,
31957,0.0014489091699942946,-0.032419513911008835,0.9498470425605774,
31967,0.02542426809668541,-0.03334056958556175,0.9906396865844727,
31977,0.005440318025648594,0.04632304236292839,0.994953989982605,
31987,0.007232580799609423,-0.016615109518170357,0.9714394211769104,
31997,-0.019123796373605728,-0.02960769087076187,1.0114243030548096,
32007,0.016650840640068054,0.0044945161789655685,0.9972295761108398,
32017,0.01315050944685936,-0.005583599675446749,0.9668156504631042,
32027,0.00411154655739665,-0.007276370655745268,0.9771208167076111,
32037,-0.004756241105496883,-0.013251282274723053,0.9831135272979736,
32047,-0.009319540113210678,-0.01112274918705225,0.9887475967407227,
32057,0.00033837713999673724,-0.007301641628146172,0.9892382025718689,
32067,0.0025240888353437185,-0.0064145284704864025,0.9986977577209473,
32077,0.005973861087113619,-0.011114319786429405,0.9867883324623108,
32087,-0.0013182846596464515,0.004954994656145573,0.9709401726722717,
32097,0.008129468187689781,-0.014006835408508778,1.0160465240478516,
32107,-0.013963166624307632,0.008518612012267113,0.9970711469650269,
32117,0.025585796684026718,-0.04518124461174011,1.0161247253417969,
32127,-0.002701894845813513,0.003993394318968058,1.0125195980072021,
32137,0.017030900344252586,-0.013257835060358047,0.9845603108406067,
32147,-0.004998398013412952,-0.016096189618110657,0.9799740314483643,
32157,0.006817065179347992,-0.0017872753087431192,1.0149047374725342,
32167,0.0033378833904862404,0.013839893974363804,0.9980903267860413,
32177,-0.007766162510961294,-0.03426459804177284,0.9991977214813232,
32187,-0.0001485914981458336,0.012825765646994114,1.0104570388793945,
32197,-0.00407333904877305,-0.005112126935273409,1.0064021348953247,
32207,-0.011263185180723667,-0.020523594692349434,0.9963515400886536,
32217,0.014207189902663231,0.007213188800960779,0.9725955128669739,
32227,-0.003917730879038572,0.0042932964861392975,1.0080548524856567,
32237,-0.015155701898038387,0.053486861288547516,0.9991945624351501,
32247,0.009533192962408066,0.02744300663471222,1.006986379623413,
32257,-0.020977424457669258,-0.027205927297472954,1.031867265701294,
32267,0.014299269765615463,-0.017322655767202377,0.9910987615585327,
32277,0.008599330671131611,-0.0008264349889941514,0.99042809009552,
32287,0.006872860714793205,-0.001392345642670989,1.0210731029510498,
32297,-0.0041838353499770164,-0.0006962234620004892,1.009602427482605,
32307,-0.0053459047339856625,-0.010152464732527733,1.0142452716827393,
32317,-0.01730886660516262,0.0033617776352912188,1.0072802305221558,
32327,0.007127893157303333,-0.012507102452218533,1.004431962966919,
32337,-0.0017689848318696022,-0.006565910764038563,1.0238598585128784,
32347,0.010838587768375874,0.009045329876244068,1.0015970468521118,
32357,-0.012929582968354225,-0.00095443578902632,0.9603887796401978,
32367,-0.005688538774847984,-0.033614832907915115,1.021105170249939,
32377,0.00019117481133434922,0.03314093500375748,1.0134859085083008,
32387,0.006166189443320036,-0.00473782466724515,1.0017529726028442,
32397,-0.03157765418291092,-0.0171342920511961,1.0696697235107422,
32407,0.007494363933801651,-0.021747184917330742,1.048411250114441,
32417,-0.006688215769827366,-0.024165572598576546,1.021894931793213,
32427,0.006102613639086485,0.025271443650126457,1.0179903507232666,
32437,-0.008402748964726925,0.042282816022634506,1.0089243650436401,
32447,0.0061787934973835945,-0.012401378713548183,1.0001838207244873,
32457,0.013039430603384972,-0.004527922719717026,1.020445704460144,
32467,0.02293405309319496,-0.007062513846904039,0.99647456407547,
32477,0.002822483889758587,-0.005627403501421213,0.9880251288414001,
32487,0.0159914493560791,-0.00019151243031956255,1.0214478969573975,
32497,0.00651594391092658,-0.005076287779957056,1.0110416412353516,
32507,0.007902154698967934,-0.0016721028368920088,1.0006155967712402,
32517,-0.006113829556852579,0.009523311629891396,1.015053153038025,
32527,-0.003919901791960001,0.019080640748143196,0.9921391606330872,
32537,-0.0019698962569236755,-0.0011563771404325962,0.9901756048202515,
32547,0.007105283904820681,-0.04090478643774986,1.048915982246399,
32557,0.005743253044784069,0.04894699901342392,1.0085508823394775,
32567,0.01369471289217472,0.0015223798109218478,0.9979972839355469,
32577,0.00735302921384573,-0.003288867650553584,1.0134305953979492,
32587,0.026829002425074577,-0.005946638528257608,1.0161490440368652,
32597,-0.011672216467559338,-0.0060591609217226505,0.9688562154769897,
32607,-0.008875319734215736,-0.004280362743884325,1.0012089014053345,
32617,0.005423042923212051,0.013384422287344933,0.9667304754257202,
32627,-0.002847034251317382,-0.008619843050837517,0.9869182109832764,
32637,0.003107810625806451,-0.006714679300785065,1.0115649700164795,
32647,0.02173946425318718,0.0047199297696352005,1.0069613456726074,
32657,0.0010621881810948253,0.004777123685926199,0.9912804365158081,
32667,-0.00889405608177185,0.011396313086152077,0.9917972683906555,
32677,0.012502298690378666,-0.017178796231746674,1.0183991193771362,
32687,0.03141031041741371,-0.02242269366979599,1.0196213722229004,
32697,0.04198369383811951,-0.031635139137506485,1.0030972957611084,
32707,0.010290294885635376,0.0014541096752509475,0.9909356832504272,
32717,0.0013968965504318476,-0.009794283658266068,1.0298662185668945,
32727,-0.011814371682703495,0.016546959057450294,1.0023772716522217,
32737,-0.004995526280254126,-0.03209274262189865,1.0059126615524292,
32747,-0.016063520684838295,0.0019918119069188833,1.0374324321746826,
32757,0.003770075971260667,-0.0007984538096934557,0.9776905179023743,
32767,6.0413225583033636e-05,-0.012343088164925575,0.999972403049469,
32777,0.008108139969408512,0.004482451826334,1.033401608467102,
32787,-0.010407259687781334,-0.003139955922961235,0.9886212944984436,
32797,-0.017514733597636223,-0.02280171401798725,1.0022414922714233,
32807,-0.017425544559955597,0.017113227397203445,0.988510012626648,
32817,0.0038017595652490854,-0.010985243134200573,1.0207840204238892,
32827,0.010410639457404613,-0.024753915145993233,1.000939130783081,
