time,acc.x,acc.y,acc.z,
616434,-0.012166819535195827,-0.012391870841383934,1.051212191581726,
616444,-0.007745295763015747,-0.030081165954470634,0.9956243634223938,
616454,-0.005555537063628435,0.011623097583651543,0.9967578053474426,
616464,0.007187876384705305,0.07884833216667175,0.9993681311607361,
616474,0.0108595360070467,0.043249715119600296,0.9884074330329895,
616484,0.003484574379399419,0.00473258551210165,0.9899528622627258,
616494,-0.0037704173009842634,0.010036839172244072,0.9938774108886719,
616504,-0.014571178704500198,0.00937667302787304,0.9940279722213745,
616514,0.004684788640588522,0.08614829182624817,1.0321401357650757,
616524,-0.012512455694377422,0.07782766968011856,0.9940657019615173,
616534,0.023820752277970314,0.023346249014139175,0.9896502494812012,
616544,-0.014595778658986092,-0.024019179865717888,1.0091437101364136,
616554,0.023512285202741623,-0.0016830374952405691,0.9865792393684387,
616564,0.015990236774086952,-0.01299483422189951,1.0060319900512695,
616574,0.009219357743859291,0.04424726590514183,0.9529316425323486,
616584,-0.008409889414906502,0.006658341735601425,0.9910082221031189,
616594,-0.009784786030650139,0.014231409877538681,0.9806355237960815,
616604,-0.0024484761524945498,0.012323137372732162,0.9843881130218506,
616614,-0.009330334141850471,0.018075771629810333,1.0030795335769653,
616624,-0.006352575030177832,-0.0029912677127867937,1.0030512809753418,
616634,0.005029293242841959,0.02611478976905346,1.0153777599334717,
616644,0.010449713096022606,0.036204829812049866,0.9915259480476379,
616654,-0.014848878607153893,-0.012260384857654572,1.0078039169311523,
616664,0.004049608483910561,-0.019081473350524902,0.9966809749603271,
616674,0.003892699256539345,0.0029541023541241884,0.977402925491333,
616684,-0.009124536998569965,0.10210349410772324,1.015297293663025,
616694,-0.006925792433321476,0.015748828649520874,1.0313870906829834,
616704,-0.025230463594198227,0.012465793639421463,0.9600275754928589,
616714,-0.004410458263009787,-0.006626245565712452,1.0027896165847778,
616724,-0.01192937046289444,0.08999365568161011,0.9674974083900452,
616734,0.036745522171258926,0.03841899335384369,1.0181211233139038,
616744,-0.011615817435085773,0.03963730111718178,1.0888668298721313,
616754,-0.031407855451107025,-0.003802867606282234,1.0002769231796265,
616764,-0.03201303631067276,0.04272178187966347,0.9989228844642639,
616774,-0.012123760767281055,0.05024006590247154,1.0014103651046753,
616784,0.011281813494861126,0.0887930765748024,0.9718636870384216,
616794,0.012250469997525215,0.00851040706038475,0.9898768067359924,
616804,0.0024512959644198418,-0.017920592799782753,0.996161699295044,
616814,-0.01704179309308529,0.007334359921514988,0.9702242612838745,
616824,-0.011024469509720802,0.01889607310295105,0.9981087446212769,
616834,0.005079011898487806,0.03899908438324928,0.9714676141738892,
616844,0.0074278246611356735,0.004415150266140699,1.0223232507705688,
616854,-0.00907392892986536,0.0027238440234214067,1.027735710144043,
616864,-0.00241536321118474,-0.0018015402602031827,0.992004930973053,
616874,-0.00211359653621912,0.02707505039870739,0.9890673160552979,
616884,-0.0017608683556318283,-0.001500177662819624,1.0428580045700073,
616894,-0.021199971437454224,0.009421275928616524,1.0281217098236084,
616904,-0.013513453304767609,-0.005289648659527302,0.9919208884239197,
616914,-0.0001447325194021687,0.021329447627067566,0.9982296228408813,
616924,0.01040500309318304,0.005555166397243738,1.0356411933898926,
616934,-0.02389235980808735,0.040211599320173264,1.0178414583206177,
616944,0.004308437462896109,-0.008130130358040333,1.0035165548324585,
616954,-0.015712209045886993,0.029741734266281128,1.0155885219573975,
616964,-0.005683505441993475,0.04260709881782532,1.0172584056854248,
616974,0.0036166375502943993,0.057559750974178314,0.940362274646759,
616984,0.025169365108013153,-0.005364402662962675,1.0330861806869507,
616994,-0.014987343922257423,-0.020576588809490204,1.0605943202972412,
617004,-0.03978368267416954,0.04393862187862396,0.9935678243637085,
617014,-0.009011102840304375,0.07564246654510498,0.9729602336883545,
617024,0.003967464901506901,0.009116912260651588,0.9890232682228088,
617034,-0.0009657684713602066,0.008908365853130817,1.0002896785736084,
617044,-0.01562926545739174,0.02104140631854534,0.9949829578399658,
617054,0.004231586586683989,-0.0007517594494856894,0.9841043949127197,
617064,-0.004679020494222641,0.01397805567830801,1.0368382930755615,
617074,0.013918881304562092,0.008459413424134254,1.0471419095993042,
617084,-0.007810867857187986,0.009840516373515129,1.02175772190094,
617094,-0.002767973579466343,-0.012335346080362797,1.025413990020752,
617104,-0.01232491247355938,0.007443852722644806,1.053280234336853,
617114,0.018658630549907684,0.021410681307315826,1.0112214088439941,
617124,-0.006033460143953562,-0.006938446778804064,0.9853951334953308,
617134,0.006504671182483435,-0.01061540562659502,1.0239741802215576,
617144,-0.028913145884871483,0.006792906671762466,1.0257447957992554,
617154,-0.00732871238142252,0.05794263631105423,0.956280529499054,
617164,-0.0017961746780201793,0.015848569571971893,0.9549843072891235,
617174,6.875171948195202e-06,-0.019754942506551743,1.0090696811676025,
617184,-0.009656857699155807,0.026689911261200905,0.9741818308830261,
617194,-0.007297909818589687,0.09167326241731644,1.02223539352417,
617204,0.0014904638519510627,0.0297232773154974,1.057110071182251,
617214,-0.028010260313749313,0.02154121734201908,0.9952825903892517,
617224,-0.006697933189570904,0.01862475462257862,0.9955664277076721,
617234,-0.026486998423933983,0.0615076869726181,0.9841690063476562,
617244,-0.011901317164301872,0.02434450015425682,0.993657648563385,
617254,-0.010234937071800232,0.004230936989188194,0.9934443831443787,
617264,0.014084038324654102,0.007179670501500368,0.9894563555717468,
617274,-4.987165448255837e-05,-0.003220935119315982,0.9911840558052063,
617284,0.00946687813848257,0.025767136365175247,0.9803674221038818,
617294,0.004297332838177681,-0.0029857298359274864,1.030364751815796,
617304,-0.009891710244119167,0.014328929595649242,1.0083593130111694,
617314,-0.0010173803893849254,0.014714767225086689,1.0252405405044556,
617324,-0.0008261745679192245,0.029070597141981125,1.00021493434906,
617334,0.006397271063178778,0.03419014811515808,1.0178804397583008,
617344,0.00714924605563283,0.051668260246515274,0.9514476656913757,
617354,0.03500209376215935,-0.01817019283771515,1.0170063972473145,
617364,0.0028481504414230585,-0.027521325275301933,1.022396206855774,
617374,-0.02312053181231022,0.038321707397699356,0.9954619407653809,
617384,-0.0013649130705744028,0.09698890894651413,0.9647913575172424,
617394,-0.0025279235560446978,-0.008425734005868435,0.9935991168022156,
617404,-0.009395282715559006,0.015235085040330887,0.9545757174491882,
617414,-0.017176534980535507,0.005094386171549559,0.9842129349708557,
617424,-0.015979936346411705,0.060126304626464844,0.9945691823959351,
617434,-0.0038693544920533895,0.03429974243044853,0.9868921041488647,
617444,0.042865607887506485,0.018793845549225807,0.9832671284675598,
617454,-0.017525261268019676,-0.029476946219801903,1.002120018005371,
617464,0.004670673981308937,-0.012874762527644634,0.970074474811554,
617474,-0.0005534029332920909,-0.008825620636343956,0.9690347909927368,
617484,0.009770561940968037,0.05656197667121887,0.9925205707550049,
617494,0.012354649603366852,0.04327370226383209,0.9731125235557556,
617504,-0.02803833968937397,0.009847406297922134,1.0114139318466187,
617514,-0.00963335856795311,-0.005800934508442879,1.0130189657211304,
617524,-0.005664824042469263,0.0653218924999237,0.938289225101471,
617534,0.024323701858520508,0.0597589835524559,0.9766331911087036,
617544,-0.005131245125085115,-0.007838470861315727,1.0286370515823364,
617554,0.013877307064831257,-0.03342859819531441,1.0014766454696655,
617564,-0.019603347405791283,0.05447106808423996,1.0307371616363525,
617574,-0.002732324181124568,0.056341640651226044,1.01181960105896,
617584,-0.01966787502169609,0.03878101706504822,0.9685963988304138,
617594,-0.01271880604326725,-0.011265595443546772,0.9802405834197998,
617604,-0.0042001125402748585,0.03408848121762276,1.0019696950912476,
617614,-0.021450506523251534,-0.0013909440021961927,0.9896960854530334,
617624,0.0032704330515116453,0.019599370658397675,0.976836621761322,
617634,-0.009792539291083813,-0.004251403734087944,1.0091372728347778,
617644,-0.007017114199697971,-0.014605928212404251,0.9986962676048279,
617654,0.009616449475288391,0.02860245481133461,0.9459548592567444,
617664,-0.013600001111626625,0.013590894639492035,1.0088810920715332,
617674,-0.011880763806402683,0.012280470691621304,0.9633225798606873,
617684,-0.00797155499458313,0.002141260541975498,0.9776121377944946,
617694,-0.009018715471029282,0.028295889496803284,0.9706003665924072,
617704,0.004457194823771715,0.017196157947182655,0.9693830013275146,
617714,0.01954861544072628,0.03704264014959335,0.9706771373748779,
617724,-0.025364777073264122,-0.0023248884826898575,1.0325148105621338,
617734,-0.018819812685251236,0.010157712735235691,1.030388593673706,
617744,0.0014155497774481773,0.018683413043618202,0.9770861268043518,
617754,0.0028818142600357533,0.01714753359556198,0.9919379949569702,
617764,-0.007251157891005278,0.005839804653078318,1.0477303266525269,
617774,-0.01484666671603918,-0.011296488344669342,1.0377426147460938,
617784,-0.016944728791713715,0.052277758717536926,0.9892985820770264,
617794,0.010653016157448292,0.044981520622968674,0.9903001189231873,
617804,0.027113165706396103,-0.011337457224726677,1.0519977807998657,
617814,-0.011935236863791943,-0.024415045976638794,1.0066072940826416,
617824,-0.028057372197508812,0.053285907953977585,0.9991565346717834,
617834,0.01237008161842823,0.0762951523065567,1.0212680101394653,
617844,0.011734121479094028,0.004304148256778717,1.0126391649246216,
617854,-0.009971274994313717,-0.016315080225467682,0.9871764183044434,
617864,-0.03282586485147476,0.024532226845622063,0.9766592979431152,
617874,-0.011284415610134602,0.02412908338010311,0.9836195111274719,
617884,0.007936449721455574,0.06541848927736282,1.0091632604599,
617894,-0.01166059821844101,0.01531989686191082,1.0263919830322266,
617904,-0.03405986726284027,-0.0018732018070295453,1.0060516595840454,
617914,-0.0055831666104495525,-0.0018595915753394365,1.0135769844055176,
617924,-0.0027641430497169495,0.04273691773414612,1.028784155845642,
617934,-0.0010787185747176409,0.0352260023355484,1.0553624629974365,
617944,-0.00948774442076683,-0.026599284261465073,0.9696043729782104,
617954,-0.0005761050852015615,-0.0069221858866512775,0.9752607941627502,
617964,-0.02677924372255802,0.09876804798841476,0.9873714447021484,
617974,-0.012347007170319557,0.05101284757256508,0.945883572101593,
617984,-0.018752321600914,0.03788454458117485,0.8917408585548401,
617994,-0.009947491809725761,0.021885430440306664,0.9945100545883179,
618004,-0.020445507019758224,0.12302606552839279,1.0071072578430176,
618014,-0.014541384764015675,-0.000980710843577981,0.9981697201728821,
618024,0.034777894616127014,0.004483353346586227,1.0158430337905884,
618034,-0.015362895093858242,-0.012875644490122795,0.9761711955070496,
618044,-0.024004273116588593,-0.004891309887170792,0.9812292456626892,
618054,-0.01296586636453867,0.011768210679292679,0.9599010944366455,
618064,-0.0007225571316666901,0.05117753893136978,0.9785833954811096,
618074,-0.011281996965408325,0.022265970706939697,0.9761345982551575,
618084,-0.007384090218693018,-0.02289367839694023,1.0235241651535034,
618094,0.0047247507609426975,0.08048925548791885,1.014196753501892,
618104,0.003011423395946622,0.0010985223343595862,1.0203304290771484,
618114,-0.008160858415067196,0.008899985812604427,0.9948965311050415,
618124,-0.01859782077372074,0.0019203471019864082,1.0209589004516602,
618134,0.007354901637881994,0.06989680975675583,0.9862734079360962,
618144,0.0038991987239569426,-0.01244518905878067,1.009283423423767,
618154,-0.023540513589978218,0.0173756442964077,1.0332756042480469,
618164,-0.018051253631711006,0.08604329824447632,1.0071666240692139,
618174,-0.0026473624166101217,0.08099313080310822,0.9544059634208679,
618184,0.002592202043160796,0.0017676092684268951,0.9745107889175415,
618194,-0.015898266807198524,-0.016364198178052902,0.9726133942604065,
618204,-0.006719584111124277,0.014680251479148865,1.0035425424575806,
618214,-0.006941910833120346,-0.010121197439730167,1.0233640670776367,
618224,-0.0013826217036694288,0.041652292013168335,0.9863470196723938,
618234,-0.015597723424434662,0.0071584866382181644,0.9979304671287537,
618244,-0.01791495457291603,0.009189234115183353,1.0032719373703003,
618254,-0.006495136301964521,0.022375065833330154,1.0034846067428589,
618264,-0.013833844102919102,0.03439710661768913,0.9874330759048462,
618274,0.027834638953208923,-0.013647894375026226,1.0142419338226318,
618284,-0.006996492389589548,0.007026813458651304,1.024391770362854,
618294,0.00637240894138813,0.07701849937438965,1.0307077169418335,
618304,-0.0006940194871276617,0.02333800680935383,1.0434321165084839,
618314,0.010725684463977814,-0.005590944085270166,0.9979762434959412,
618324,-0.011127426289021969,0.05131734162569046,0.9679331183433533,
618334,0.010357607156038284,0.051497284322977066,1.0148035287857056,
618344,0.002205091994255781,-0.012961534783244133,1.0199589729309082,
618354,0.0007444963557645679,-0.04341493174433708,0.9660710692405701,
618364,-0.024909401312470436,0.087744802236557,0.9730561971664429,
618374,0.02769586257636547,0.007678365800529718,0.982609212398529,
618384,0.002608455251902342,-0.01267271675169468,1.0083918571472168,
618394,-0.033701732754707336,0.006830937694758177,1.0096815824508667,
618404,-0.013814258389174938,0.04113520309329033,1.0084747076034546,
618414,0.0008023434784263372,0.04482552781701088,0.9498635530471802,
618424,-0.010440962389111519,0.03038823790848255,0.9448305368423462,
618434,0.014466224238276482,-0.04479767009615898,1.0388171672821045,
618444,-0.025939688086509705,0.004301412031054497,1.0072400569915771,
618454,-0.024533135816454887,0.10041806846857071,0.9500121474266052,
618464,0.009281276725232601,0.036632101982831955,0.9657120704650879,
618474,-0.017281251028180122,-0.01631654053926468,1.0056172609329224,
618484,-0.022318128496408463,0.071404367685318,0.9523070454597473,
618494,0.030945653095841408,0.056082576513290405,0.9848220944404602,
618504,0.040171340107917786,-0.044410936534404755,1.0332510471343994,
618514,-0.01929987408220768,-0.06255771964788437,1.002171516418457,
618524,-0.012021534144878387,0.07125990837812424,0.9891461133956909,
618534,-0.004483947064727545,0.04871361330151558,0.9733071327209473,
618544,0.008637703023850918,0.008799913339316845,0.9925727248191833,
618554,-0.007031956221908331,-0.026038965210318565,0.9960623383522034,
618564,0.005538617726415396,-0.045240115374326706,1.0084259510040283,
618574,0.015092352405190468,0.012074335478246212,0.9799871444702148,
618584,-0.009997718036174774,0.02177552320063114,1.0237481594085693,
618594,-0.02845870703458786,0.018879009410738945,0.9987654089927673,
618604,-0.018478913232684135,-0.01605154387652874,0.9920043349266052,
618614,0.018478065729141235,0.054331615567207336,0.9675495624542236,
618624,0.02219184674322605,-0.002155920723453164,1.0660157203674316,
618634,0.002339364495128393,0.0002341481886105612,1.0445197820663452,
618644,0.010477287694811821,0.047325052320957184,1.0367528200149536,
618654,0.0006253724568523467,0.05627203360199928,0.992404580116272,
618664,0.01810598559677601,-0.010551126673817635,1.011168122291565,
618674,-0.011372579261660576,0.04148389771580696,0.9617511630058289,
618684,0.026085879653692245,0.04656677320599556,0.9682049751281738,
618694,0.002690086141228676,0.07040027529001236,1.0401939153671265,
618704,0.005972560029476881,0.0034217473585158587,1.0757871866226196,
618714,-0.024840017780661583,-0.012233508750796318,1.0001683235168457,
618724,-0.02199433743953705,0.022589676082134247,1.0004147291183472,
618734,-0.0029082775581628084,0.0416748933494091,1.0059622526168823,
618744,0.015752188861370087,0.010797911323606968,1.0188294649124146,
618754,-0.0012764432467520237,-0.011997547000646591,1.0134516954421997,
618764,-0.012238915078341961,0.010534843429923058,1.0157692432403564,
618774,-0.0022752266377210617,-0.005725468974560499,1.0085008144378662,
618784,-0.004719151649624109,0.012463574297726154,1.043885350227356,
618794,0.008491896092891693,-0.01739867776632309,1.0384588241577148,
618804,-0.008120937272906303,0.0073611680418252945,1.0129711627960205,
618814,0.0009455113322474062,-0.0045730373822152615,0.9698120951652527,
618824,-0.004937900695949793,0.01216080691665411,1.0140881538391113,
618834,-0.019957607612013817,-0.015341217629611492,1.0456804037094116,
618844,-0.030402785167098045,-0.004728496074676514,1.058537483215332,
618854,-0.011524428613483906,-0.015871481969952583,1.0411434173583984,
618864,0.015360689722001553,0.11491751670837402,0.9874816536903381,
618874,0.0045580873265862465,0.015686949715018272,1.0244415998458862,
618884,0.009524797089397907,-0.0035010664723813534,1.0066314935684204,
618894,0.012337423861026764,0.034053754061460495,1.0179221630096436,
618904,-0.008297373540699482,0.06616470962762833,1.0895072221755981,
618914,-0.029278505593538284,-0.021793192252516747,1.0626105070114136,
618924,-0.059770505875349045,-0.005835116375237703,0.9931598901748657,
618934,-0.011784099973738194,0.18142220377922058,0.9580899477005005,
618944,0.02916138432919979,0.01270541362464428,1.034209966659546,
618954,0.03353193402290344,-0.020800359547138214,1.08208167552948,
618964,-0.02279135212302208,0.030455201864242554,1.0151318311691284,
618974,-0.007316946052014828,0.07542379945516586,1.0084319114685059,
618984,0.011815576814115047,-0.0015569512033835053,1.0086067914962769,
618994,0.03596886247396469,-0.015712423250079155,1.0023045539855957,
619004,0.013707759790122509,-0.008656167425215244,1.0013781785964966,
619014,-0.005435048136860132,0.0021006388124078512,1.010299563407898,
619024,-0.003945980686694384,0.0025840620510280132,1.0307343006134033,
619034,-0.00365815288387239,-0.007300734054297209,0.9980425834655762,
619044,0.013847911730408669,0.0016501954523846507,0.9801400303840637,
619054,0.011941476725041866,-2.210750062658917e-05,1.0062271356582642,
619064,0.009584305807948112,0.012011448852717876,1.0169621706008911,
619074,-0.018518991768360138,-0.01569254696369171,0.981740415096283,
619084,0.002581285545602441,-0.015826210379600525,0.9860735535621643,
619094,0.0015692053129896522,0.011530504561960697,0.9799076318740845,
619104,0.00020626861078199,0.03361773118376732,1.0029486417770386,
619114,-0.01886487938463688,0.013533647172152996,0.9755591154098511,
619124,-0.0025684048887342215,0.0007717755506746471,0.9533917307853699,
619134,0.007994847372174263,0.057237885892391205,0.9341707825660706,
619144,-0.007315246853977442,0.06154438853263855,1.0502935647964478,
619154,-0.004019622225314379,-0.030495239421725273,1.0248136520385742,
619164,-0.039858702570199966,-0.01329245138913393,0.9471011757850647,
619174,-0.0017111118650063872,0.10812825709581375,0.9326874613761902,
619184,0.012555177323520184,0.04398036748170853,1.008048415184021,
619194,0.010825295001268387,-0.013605345040559769,1.0084240436553955,
619204,-0.02026059292256832,-0.00932998862117529,0.9716424942016602,
619214,-0.014968205243349075,0.03247241675853729,0.9819210767745972,
619224,0.004752817563712597,0.009468256495893002,0.9661927223205566,
619234,0.012570894323289394,-0.012683738954365253,1.002852201461792,
619244,-0.0007883922662585974,0.016963187605142593,0.9911504983901978,
619254,-0.010709935799241066,0.03336452320218086,1.0196363925933838,
619264,0.008439845405519009,0.00045445613795891404,1.0000734329223633,
619274,-0.0022739097476005554,0.00954358372837305,0.9767283201217651,
619284,0.016852498054504395,0.029808033257722855,1.0133293867111206,
619294,-0.007611090783029795,-0.00020265571947675198,0.9919109344482422,
619304,0.010701560415327549,-0.023031186312437057,1.012935996055603,
619314,-0.030364612117409706,0.05507538095116615,0.986423909664154,
619324,-0.011729808524250984,0.015129218809306622,1.0384386777877808,
619334,-0.01734287105500698,0.00908501073718071,0.9708923101425171,
619344,-0.004104013554751873,-0.02960769645869732,0.9962596893310547,
619354,0.011601388454437256,0.05628800392150879,0.9618188738822937,
619364,0.0013526719994843006,0.10024414211511612,0.9756174683570862,
619374,-0.009840183891355991,0.04141087085008621,0.9378272891044617,
619384,0.02434462495148182,-0.03907440975308418,1.0095956325531006,
619394,-0.007027251645922661,0.09618106484413147,1.035132646560669,
619404,0.026435615494847298,0.015602102503180504,1.0590121746063232,
619414,-0.010046045295894146,-0.027342135086655617,0.991030216217041,
619424,-0.015450204722583294,0.004824688192456961,0.9920331239700317,
619434,-0.007193499710410833,0.0007608040468767285,1.0214369297027588,
619444,-0.009061964228749275,-0.010777415707707405,1.0508979558944702,
619454,-0.006413598079234362,0.044646359980106354,0.9958905577659607,
619464,-0.007952028885483742,0.01643967255949974,1.0355075597763062,
619474,-0.0086629968136549,-0.006331915035843849,1.0232197046279907,
619484,-0.010934760794043541,0.03741858899593353,0.9807190299034119,
619494,-0.008481898345053196,0.03447486460208893,1.0075334310531616,
619504,-0.00255437265150249,0.03851986676454544,0.9622329473495483,
619514,0.002386694774031639,0.01571568101644516,1.0228779315948486,
619524,-0.00967665296047926,0.029155142605304718,1.0278338193893433,
619534,-0.015929777175188065,-0.017105525359511375,1.0321375131607056,
619544,-0.015856297686696053,0.00712188147008419,1.0024702548980713,
619554,-0.019779222086071968,0.03574835881590843,0.9925445318222046,
619564,-0.018287530168890953,0.03170605003833771,0.9428874850273132,
619574,0.008907263167202473,0.02629205211997032,0.9303925633430481,
619584,0.021286221221089363,-0.003199874423444271,1.0347635746002197,
619594,0.012124511413276196,0.052521251142024994,1.0739768743515015,
619604,-0.006573335267603397,0.011214030906558037,1.0131696462631226,
619614,-0.017931675538420677,0.015340319834649563,0.9714221358299255,
619624,0.012003699317574501,0.013271484524011612,0.9954555630683899,
619634,0.010281821712851524,0.058105189353227615,1.014760136604309,
619644,0.012739184312522411,-0.004329759161919355,1.0099183320999146,
619654,-0.02003263495862484,0.012292730621993542,0.9796297550201416,
619664,-0.001781520084477961,0.024431968107819557,0.9875478744506836,
619674,-0.011073989793658257,0.03595326840877533,1.020143985748291,
619684,0.004584694281220436,-0.008738047443330288,1.0224307775497437,
619694,-0.006112892180681229,0.029597589746117592,1.0021727085113525,
619704,0.01830633357167244,0.0027193333953619003,0.9872748851776123,
619714,-0.013086813502013683,0.005850979592651129,1.009127140045166,
619724,-0.007755974307656288,0.014155741780996323,1.0152524709701538,
619734,-0.016377020627260208,0.019127346575260162,1.005263090133667,
619744,0.010504921898245811,-0.00733051635324955,0.9744294285774231,
619754,-0.0161893367767334,-0.007829801179468632,1.0002739429473877,
619764,0.0014698952436447144,0.01525005605071783,1.0383342504501343,
619774,0.005306418985128403,-0.003266642102971673,1.030059576034546,
619784,0.024405237287282944,0.014243323355913162,1.0123424530029297,
619794,0.004894096404314041,-0.0012066543567925692,0.979195237159729,
619804,0.013000976294279099,-0.009683515876531601,0.9807268977165222,
619814,0.009251412935554981,0.03738248348236084,0.9916593432426453,
619824,-0.013252698816359043,0.015881534665822983,1.0258413553237915,
619834,-0.00035898108035326004,-0.015524014830589294,1.0014721155166626,
619844,-0.007239570841193199,0.00918644294142723,1.0004931688308716,
619854,0.003426825162023306,0.06414712220430374,0.9727957248687744,
619864,-0.0002972044167108834,0.001990850083529949,0.9456807971000671,
619874,0.007819298654794693,-0.024170201271772385,1.027997374534607,
619884,-0.0170968696475029,0.06052248924970627,1.03822922706604,
619894,-0.022661607712507248,0.0057271928526461124,0.9750245809555054,
619904,0.00586743326857686,0.02657482959330082,0.9297709465026855,
619914,0.007017539814114571,0.0655849426984787,0.9980659484863281,
619924,0.0014235430862754583,0.1068066656589508,1.086012840270996,
619934,-0.0299659576267004,-0.027001552283763885,0.9892926812171936,
619944,-0.004803101532161236,0.09372807294130325,0.9678624868392944,
619954,0.029067574068903923,0.12787394225597382,0.9646298885345459,
619964,0.00555630074813962,0.01109856367111206,1.019283413887024,
619974,0.015308279544115067,-0.041532739996910095,1.0121781826019287,
619984,0.0010582177201285958,0.006381180603057146,1.0134893655776978,
619994,0.006371237803250551,0.059340253472328186,0.9538084864616394,
620004,0.005817931145429611,0.02885538712143898,0.9512432813644409,
620014,0.0025657385122030973,0.0018760910024866462,0.9931535124778748,
620024,-0.020734623074531555,0.043235551565885544,1.0035017728805542,
620034,0.016170110553503036,0.033411528915166855,0.982458770275116,
620044,-0.005860018543899059,0.037448372691869736,1.0008182525634766,
620054,-0.010473447851836681,0.003570608329027891,1.0025428533554077,
620064,-0.004054842982441187,0.048775508999824524,0.973565936088562,
620074,0.03057427890598774,0.027836469933390617,0.9571391940116882,
620084,0.008414668962359428,0.013208156451582909,1.010210633277893,
620094,0.0036017135716974735,-0.0034018815495073795,0.9903199076652527,
620104,-0.011841877363622189,0.0039949603378772736,0.9481534957885742,
620114,-0.006348088383674622,0.03181714937090874,0.9481114745140076,
620124,-0.007632714230567217,-0.004228041972965002,0.961667537689209,
620134,0.005065694451332092,0.028514692559838295,0.9817304015159607,
620144,0.016828807070851326,0.056906357407569885,0.9617601037025452,
620154,0.01352734211832285,-0.011598379351198673,0.9883039593696594,
620164,0.010422836057841778,0.009063273668289185,1.019575595855713,
620174,-9.578515164321288e-05,0.09685802459716797,0.9958085417747498,
620184,0.049616023898124695,0.019499700516462326,1.0209397077560425,
620194,0.025402991101145744,-0.04294195771217346,1.0356841087341309,
620204,-0.01311742328107357,0.05809975415468216,1.0350830554962158,
620214,-0.00038272293750196695,0.09602286666631699,1.0148651599884033,
620224,-0.012779694981873035,0.01147276721894741,0.9123891592025757,
620234,-0.010473815724253654,0.010410018265247345,0.9638428092002869,
620244,0.01426544226706028,0.11181682348251343,1.0114262104034424,
620254,0.002377960365265608,-0.004483930300921202,1.0086219310760498,
620264,-0.015499470755457878,0.017514368519186974,0.9568472504615784,
620274,-0.0023236817214637995,0.021392880007624626,1.006462812423706,
620284,0.0057640885934233665,0.04239586740732193,0.9895519018173218,
620294,0.0006360228289850056,-0.009003297425806522,0.9842125177383423,
620304,-0.014833800494670868,0.001159478328190744,0.9700404405593872,
620314,0.008938498795032501,0.0066592455841600895,0.9924827814102173,
620324,-0.0070872181095182896,0.025442134588956833,1.0204695463180542,
620334,0.00787112396210432,-0.008724748156964779,1.0384899377822876,
620344,-0.003678485518321395,0.03242330625653267,1.0198359489440918,
620354,0.015097496099770069,0.020299136638641357,1.0150247812271118,
620364,-0.0048177544958889484,-0.013647573068737984,0.9944851994514465,
620374,-0.01158576738089323,0.06343628466129303,0.9929628372192383,
620384,-0.005150249693542719,0.04998074471950531,1.0077539682388306,
620394,-0.008341774344444275,0.03353012725710869,1.0066370964050293,
620404,-0.0013482088688760996,0.018317801877856255,1.0149098634719849,
620414,0.0059113334864377975,0.1046033576130867,1.0169464349746704,
620424,0.004723846446722746,0.016229169443249702,1.0045500993728638,
620434,-0.021874064579606056,0.0034770015627145767,0.9911652207374573,
620444,-0.004302537068724632,0.006823077332228422,1.0107717514038086,
620454,-0.005443706177175045,0.020691193640232086,1.0247423648834229,
620464,0.006784982979297638,0.001521663274616003,0.9897497296333313,
620474,0.010038627311587334,0.02974352054297924,0.9507822394371033,
620484,0.0017911489121615887,0.0025091732386499643,1.0043607950210571,
620494,-2.2782756786909886e-05,-0.007395664695650339,1.0045721530914307,
620504,-0.009171940386295319,-0.01611233502626419,1.0317962169647217,
620514,-0.010720262303948402,0.032207801938056946,0.9946870803833008,
620524,-0.004330294672399759,0.010864528827369213,0.987651526927948,
620534,0.004913670010864735,0.007012566085904837,0.9738712906837463,
620544,0.004191058687865734,-0.009315581992268562,1.0345550775527954,
620554,-0.026926515623927116,0.004697052761912346,1.0360848903656006,
620564,-0.018369870260357857,0.003434284357354045,1.0083633661270142,
620574,0.0022983718663454056,0.024920405820012093,0.9579703211784363,
620584,0.033357467502355576,0.015526930801570415,0.9976661801338196,
620594,0.0022234853822737932,0.00846654549241066,1.0398839712142944,
620604,0.006173840258270502,-0.0003608210536185652,1.036254644393921,
620614,-0.018191635608673096,0.0047027794644236565,1.0150909423828125,
620624,0.0074692945927381516,0.04993408918380737,0.9952908754348755,
620634,-0.0017335049342364073,0.029519857838749886,1.0154063701629639,
620644,0.011756875552237034,0.012464654631912708,1.047475814819336,
620654,-0.04354330524802208,0.025427542626857758,1.0086169242858887,
620664,-0.013397312723100185,0.174240842461586,0.9447487592697144,
620674,0.028594374656677246,0.013632663525640965,0.9938513040542603,
620684,0.02302561327815056,-0.023877104744315147,1.0092720985412598,
620694,-0.006269081030040979,0.008706876076757908,0.9709658026695251,
620704,-0.0010050300043076277,0.03488275781273842,1.0109127759933472,
620714,0.004874936304986477,0.03375266119837761,0.9658843874931335,
620724,0.008143814280629158,-0.010363985784351826,0.9736843109130859,
620734,-0.009744239039719105,0.016993079334497452,0.9658802151679993,
620744,-0.0185347031801939,0.012957561761140823,1.013890266418457,
620754,0.01791026070713997,0.054211411625146866,0.9823823571205139,
620764,-0.0017910203896462917,0.025627585127949715,0.9811674952507019,
620774,-0.000958715274464339,0.008089825510978699,1.004842758178711,
620784,-0.004928079433739185,0.0020234480034559965,1.0257549285888672,
620794,0.0019614158663898706,0.012712468393146992,1.0061043500900269,
620804,0.023851482197642326,-0.007227030117064714,1.032914400100708,
620814,-0.00016390274686273187,0.0032321636099368334,1.0223857164382935,
620824,0.00865150149911642,0.07342633605003357,1.0134013891220093,
620834,0.0039719101041555405,0.030579743906855583,1.028891682624817,
620844,0.038816578686237335,-0.020017240196466446,1.016818642616272,
620854,-0.0038694445975124836,0.0004984996048733592,1.0107617378234863,
620864,-0.00535973347723484,0.0998411476612091,0.9676655530929565,
620874,0.011488541029393673,0.021655989810824394,1.0099718570709229,
620884,0.009717416018247604,-0.014462328515946865,1.0006333589553833,
620894,0.010188640095293522,-0.012266937643289566,1.0342426300048828,
620904,0.0013976743211969733,0.03727863356471062,1.0276192426681519,
620914,-0.0010985530680045485,0.010534824803471565,0.9939048886299133,
620924,0.003344467142596841,0.020514564588665962,0.9881117939949036,
620934,0.007958197966217995,-0.019234145060181618,1.0037941932678223,
620944,-0.0015657130861654878,0.002104100538417697,0.997090756893158,
620954,-0.006702579092234373,0.023153653368353844,0.9770472645759583,
620964,0.007828155532479286,0.02073688618838787,1.0243064165115356,
620974,0.0037333155050873756,-0.001175857032649219,0.9996767640113831,
620984,0.0007581687532365322,-0.002068162430077791,0.9970120787620544,
620994,0.0038839213084429502,0.003955969121307135,0.9680190682411194,
621004,-0.00426733260974288,0.005835891235619783,1.0221569538116455,
621014,-0.011507347226142883,0.005667962599545717,1.0164358615875244,
621024,-0.0005856856005266309,-0.0042518568225204945,1.007901668548584,
621034,0.01263151690363884,0.007266147527843714,0.9665006995201111,
621044,0.0020023048855364323,0.0007559424848295748,1.0295170545578003,
621054,-0.020687846466898918,0.019917665049433708,1.0321589708328247,
621064,-0.018996234983205795,0.0047911955043673515,0.9857718348503113,
621074,0.0028501383494585752,0.005013736430555582,0.9680373668670654,
621084,0.02348603680729866,0.02481011487543583,1.0076484680175781,
621094,0.0024508447386324406,-0.006000634282827377,1.0700346231460571,
621104,-0.016537053510546684,-0.0018476040568202734,1.0326162576675415,
621114,-0.0111100934445858,0.016157273203134537,0.9862658381462097,
621124,0.017859891057014465,0.03465598076581955,0.998371958732605,
621134,0.015312227420508862,-0.009216850623488426,1.061154842376709,
621144,-0.013341126032173634,0.015151328407227993,1.047868251800537,
621154,-0.017967205494642258,-0.010398863814771175,1.022945523262024,
621164,-0.02584165520966053,0.07139275968074799,0.9564300179481506,
621174,0.012324810959398746,0.06621786206960678,1.0139715671539307,
621184,0.012834575958549976,-0.017673863098025322,1.0289901494979858,
621194,-0.022557418793439865,-0.01299616601318121,1.0424635410308838,
621204,0.010653601959347725,0.020518163219094276,1.066304087638855,
621214,-0.018039090558886528,0.007316010072827339,1.0008056163787842,
621224,0.00011049411841668189,0.02062203548848629,1.0006011724472046,
621234,0.003164759837090969,0.03138556703925133,0.9987691044807434,
621244,0.0076082744635641575,-0.0049011120572686195,1.0396183729171753,
621254,-0.013994747772812843,0.0029210771899670362,1.0088794231414795,
621264,0.006364631466567516,0.029681041836738586,1.0086877346038818,
621274,0.006205568090081215,0.009050548076629639,1.0347576141357422,
621284,-0.011310086585581303,0.004949477966874838,1.0240870714187622,
621294,0.0012550572864711285,-0.006325694266706705,0.9772495031356812,
621304,0.0063089774921536446,0.02641766332089901,0.98680579662323,
621314,0.00677034305408597,0.03382398560643196,1.0073963403701782,
621324,-0.021310556679964066,-0.014348727650940418,0.9562841653823853,
621334,-0.015357879921793938,0.009653192944824696,0.928416907787323,
621344,-0.008175894618034363,-0.018067553639411926,0.9964522123336792,
621354,0.007413010578602552,0.16118626296520233,0.9658471345901489,
621364,0.010439004749059677,0.0313839390873909,1.0174590349197388,
621374,-0.013275924138724804,-0.0018384086433798075,1.0554158687591553,
621384,-0.00010988253052346408,-0.00787124689668417,0.97988361120224,
621394,-0.018596656620502472,0.11884467303752899,0.9335139989852905,
621404,0.01902271993458271,0.052518680691719055,0.9968832731246948,
621414,0.005190645344555378,0.019357549026608467,0.9285472631454468,
621424,-0.002391623333096504,-0.016495054587721825,0.9733021855354309,
621434,-0.04722486808896065,0.09294155985116959,0.9457957148551941,
621444,-0.008612302131950855,0.13701331615447998,0.9942030310630798,
621454,0.015255133621394634,-0.060775622725486755,1.0291242599487305,
621464,-0.02838822267949581,-0.018195686861872673,0.9889401793479919,
621474,0.010744960978627205,0.030883783474564552,1.009101390838623,
621484,-0.004587764851748943,0.0956069752573967,0.9843730330467224,
621494,0.018771672621369362,0.056800998747348785,0.9538305401802063,
621504,-0.017215533182024956,-0.0124254385009408,0.9614472389221191,
621514,-0.01922924444079399,-0.0051080211997032166,0.9690107107162476,
621524,-0.009343048557639122,0.0162278413772583,0.9808433055877686,
621534,0.005831389222294092,0.059513166546821594,0.9896383285522461,
621544,0.0018354651983827353,-0.010457371361553669,0.9903285503387451,
621554,-0.011270599439740181,-0.0027887995820492506,0.9965378642082214,
621564,0.00639366265386343,0.02120104245841503,1.0391279458999634,
621574,-0.008739820681512356,0.02812761440873146,1.0183030366897583,
621584,0.0008928335155360401,0.03924350067973137,1.0054839849472046,
621594,-0.026051735505461693,0.0004536985943559557,1.013611912727356,
621604,0.00213411170989275,-0.0012596334563568234,1.0639351606369019,
621614,-0.010660914704203606,0.0026527985464781523,1.0255934000015259,
621624,0.004304323811084032,0.05160254240036011,0.9932176470756531,
621634,-0.03876660391688347,-0.0028505015652626753,0.9482845664024353,
621644,-0.0022367052733898163,-0.04967710003256798,1.005359411239624,
621654,-0.010479421354830265,0.055398937314748764,1.0136500597000122,
621664,-0.0283229760825634,0.028576772660017014,0.9991903901100159,
621674,-0.021447906270623207,-0.004272070713341236,0.9765290021896362,
621684,-0.03592221811413765,0.03297404944896698,0.9895868897438049,
621694,-0.025829602032899857,-0.030232178047299385,0.991204559803009,
621704,-0.03735935315489769,0.048405129462480545,0.9926156401634216,
621714,-0.021178947761654854,-0.04004983231425285,1.0407204627990723,
621724,-0.034068673849105835,0.057040393352508545,0.9943757057189941,
621734,0.007046738639473915,0.04753335192799568,1.0495482683181763,
621744,-0.03616243228316307,-0.03671269491314888,1.0100265741348267,
621754,-0.016965055838227272,0.08770865947008133,1.016973853111267,
621764,0.018687866628170013,-0.036938901990652084,1.0352978706359863,
621774,-0.0030894435476511717,0.013285504654049873,0.9814581871032715,
621784,0.03527841717004776,0.00030921067809686065,1.0023529529571533,
621794,-0.011503814719617367,0.04208888113498688,0.9603081941604614,
621804,-0.006176811642944813,-0.004482125397771597,0.9665343165397644,
621814,-0.004644686821848154,0.0069796256721019745,0.9821785688400269,
621824,-0.007188559044152498,0.03207216039299965,1.001214623451233,
621834,-0.007988398894667625,0.019739530980587006,1.0258430242538452,
621844,-0.026179993525147438,0.031223226338624954,0.9755326509475708,
621854,-0.0023544151335954666,0.03436277061700821,0.9845629334449768,
621864,0.016804227605462074,0.03896024823188782,0.987857460975647,
621874,-0.007646372076123953,-0.006169028580188751,1.0230042934417725,
621884,-0.006325248628854752,0.007331721018999815,1.0051997900009155,
621894,-0.013079492375254631,-0.008084220811724663,1.0151203870773315,
621904,0.014681839384138584,0.051942627876996994,0.9875825643539429,
621914,0.005786407273262739,0.0036818424705415964,1.0471787452697754,
621924,-0.01495026983320713,0.006814609747380018,1.045660138130188,
621934,-0.020514775067567825,-0.017624784260988235,1.0223463773727417,
621944,0.0017378708580508828,0.0816512480378151,0.9478307962417603,
621954,0.004390423651784658,0.047706395387649536,1.051831841468811,
621964,-0.007231234572827816,0.031917572021484375,1.0818536281585693,
621974,-0.026103494688868523,0.03925887495279312,0.9635218381881714,
621984,0.006314102094620466,0.04368423670530319,0.9975682497024536,
621994,-0.015076548792421818,0.014369740150868893,1.0349982976913452,
622004,-0.0031374390237033367,0.09789729863405228,0.9930198192596436,
622014,0.0009541769395582378,0.0638919249176979,0.9972290396690369,
622024,0.019343983381986618,-0.01728156767785549,1.0472872257232666,
622034,-0.02657197043299675,0.013528471812605858,0.9926322102546692,
622044,-0.015079987235367298,0.0031094872392714024,1.0193390846252441,
622054,-0.0163166131824255,0.019299926236271858,0.9831162095069885,
622064,-0.011664696969091892,0.03641773387789726,1.0041002035140991,
622074,-0.0139616085216403,0.025652773678302765,1.040871024131775,
622084,0.00719540286809206,0.003360183909535408,0.9987630844116211,
622094,0.004332712385803461,0.007121367380023003,0.995791494846344,
622104,-0.00978784542530775,-0.0019665618892759085,1.031663179397583,
622114,-0.006109640933573246,0.0030041930731385946,0.9983320236206055,
622124,0.0010810754029080272,-0.017197806388139725,1.016355037689209,
622134,0.005006033927202225,0.021345458924770355,0.992804765701294,
622144,0.0021877584513276815,0.001977032981812954,1.009955883026123,
622154,0.002137325471267104,0.028830399736762047,0.9711595177650452,
622164,0.007411932572722435,0.02555900812149048,1.0327073335647583,
622174,-0.023108437657356262,0.0163820069283247,1.0037165880203247,
622184,-0.02222946286201477,-0.017562946304678917,0.980424702167511,
622194,0.0015880402643233538,0.006583591923117638,0.973488986492157,
622204,0.00923203956335783,-0.006294885650277138,1.0341616868972778,
622214,-0.009084663353860378,0.0035583532880991697,1.0228711366653442,
622224,-0.008314942941069603,0.09128820896148682,0.9781561493873596,
622234,-0.0027522039599716663,0.038922011852264404,1.016894817352295,
622244,-0.017253685742616653,0.03507784381508827,0.9717869162559509,
622254,0.011554636061191559,0.03953041881322861,0.9482660293579102,
622264,0.0011220475425943732,0.016953248530626297,0.9933362603187561,
622274,0.0023672678507864475,0.007249532267451286,1.0386947393417358,
622284,-0.009782294742763042,0.0344400517642498,1.0066410303115845,
622294,0.017925018444657326,0.011677208356559277,1.0139750242233276,
622304,-0.012635208666324615,0.02847767435014248,1.0114167928695679,
622314,-0.0035553607158362865,0.022369952872395515,0.9827092885971069,
622324,-0.007586101070046425,0.004376254044473171,1.015736699104309,
622334,-0.000712853332515806,0.017766619101166725,0.9823799133300781,
622344,-0.002893530298024416,0.011308898217976093,0.9905707240104675,
622354,-0.016695039346814156,0.008144569583237171,0.991240382194519,
622364,0.005049347411841154,-0.0022830278612673283,1.01239013671875,
622374,-0.016166523098945618,0.0021180035546422005,0.9877367615699768,
622384,-0.0005143308080732822,0.005381615832448006,0.9901111721992493,
622394,-0.001009334926493466,0.012415791861712933,1.0001214742660522,
622404,-0.013204105198383331,0.005179980769753456,0.9970680475234985,
622414,-0.009339936077594757,0.021299166604876518,0.9764918088912964,
622424,-0.01259373128414154,0.025639155879616737,0.9979152083396912,
622434,-0.002055800287052989,-0.003493100870400667,1.0274958610534668,
622444,-0.030005862936377525,0.03166988864541054,0.9620673060417175,
622454,0.005024076905101538,0.09180920571088791,0.9310310482978821,
622464,0.00042819249210879207,0.03496963158249855,1.030563235282898,
622474,-0.0006614940357394516,-0.013036428019404411,1.0077848434448242,
622484,0.002725227503105998,-0.00023466387938242406,1.0448791980743408,
622494,-0.0022771405056118965,0.019199930131435394,1.046613335609436,
622504,0.004542118404060602,0.06928005069494247,1.0014137029647827,
622514,0.01016500499099493,0.028208989650011063,0.986934244632721,
622524,-0.004854610655456781,0.01142914779484272,0.9664669632911682,
622534,-0.009337925352156162,-0.0019276319071650505,0.9838126301765442,
622544,-0.0111343739554286,0.0074132452718913555,0.9813055992126465,
622554,0.00331506528891623,0.011465698480606079,0.9854440689086914,
622564,0.009844842366874218,-0.023107221350073814,0.9838119745254517,
622574,-0.002450375584885478,-0.008397652767598629,0.9922893047332764,
622584,-0.011208534240722656,-0.0032072365283966064,1.0190253257751465,
622594,-0.017118772491812706,0.0037774150259792805,1.0058759450912476,
622604,0.0004607124428730458,0.005065043456852436,0.995236337184906,
622614,-0.01547478511929512,0.0229320265352726,0.979485273361206,
622624,-0.010051976889371872,0.03729681670665741,0.93851238489151,
622634,-0.0009120779577642679,0.017678599804639816,0.9639902114868164,
622644,0.007107114885002375,-0.013029379770159721,0.9991759061813354,
622654,0.008295276202261448,-0.006006533745676279,0.9874011874198914,
622664,-0.019023727625608444,0.08968353271484375,1.008705496788025,
622674,0.020769989117980003,-0.027497999370098114,0.9626257419586182,
622684,-0.0029712074901908636,0.016171857714653015,1.0286877155303955,
622694,-0.0015662265941500664,-0.028266534209251404,1.0162936449050903,
622704,-0.014747205190360546,0.03306027501821518,1.0079431533813477,
622714,-0.010164466686546803,0.039660461246967316,0.9452366828918457,
622724,-0.01459552813321352,0.03440912440419197,0.9614194631576538,
622734,-0.0019068114925175905,0.0219761673361063,0.9469065070152283,
622744,0.0029242984019219875,-0.0039686053059995174,0.995526909828186,
622754,-0.014675102196633816,0.021468082442879677,0.9989598393440247,
622764,0.002381287282332778,-0.00020805929671041667,0.9842362403869629,
622774,-0.00127632066141814,0.022604860365390778,1.0052411556243896,
622784,0.006165046710520983,0.010955915786325932,0.9698424935340881,
622794,-0.017057834193110466,-0.026786645874381065,0.9830583930015564,
622804,-0.00379480910487473,-0.018507737666368484,0.9684757590293884,
622814,0.006619262043386698,0.009296879172325134,0.9984397888183594,
622824,0.0030137428548187017,0.060371026396751404,0.9875682592391968,
622834,-0.03785928711295128,0.011593607254326344,0.9510868191719055,
622844,-0.011967959813773632,-0.0035582296550273895,0.972380518913269,
622854,-0.0031883360352367163,-0.015384318307042122,1.0080318450927734,
622864,-0.0042496053501963615,0.12111078947782516,0.9336960911750793,
622874,0.04364696145057678,0.08575870096683502,0.9766151309013367,
622884,-0.0020646487828344107,-0.011626006104052067,1.0273258686065674,
622894,0.0034334217198193073,-0.028600545600056648,1.0090835094451904,
622904,0.0019530759891495109,0.018093064427375793,1.0369867086410522,
622914,0.01955466717481613,0.0710950493812561,1.0048693418502808,
622924,0.007789615076035261,0.032084207981824875,1.0038304328918457,
622934,0.00494803860783577,0.02094148099422455,0.9666455388069153,
622944,-0.012226887978613377,-0.009089324623346329,0.9923352599143982,
622954,-0.012646597810089588,0.024666031822562218,1.025863528251648,
622964,-0.0020825567189604044,0.0028185229748487473,0.9936503171920776,
622974,0.0095497015863657,0.037854067981243134,1.00883948802948,
622984,0.012035421095788479,0.011641640216112137,1.0135467052459717,
622994,0.013335665687918663,-0.0024908476043492556,1.0533713102340698,
623004,-0.0029205374885350466,-0.022525519132614136,1.0539151430130005,
623014,-0.014436189085245132,0.030212050303816795,1.0119550228118896,
623024,0.004313799552619457,0.09580294042825699,0.9665610194206238,
623034,-0.019011056050658226,0.008881271816790104,0.9906773567199707,
623044,-0.0029824874363839626,-0.016986442729830742,0.9935998320579529,
623054,0.026709720492362976,-0.05347265303134918,0.9840480089187622,
623064,-0.005646757781505585,0.09298106282949448,1.0102978944778442,
623074,-0.006482362747192383,0.02889007329940796,1.0156750679016113,
623084,-0.01260396372526884,0.023417670279741287,0.9339737296104431,
623094,-0.006557588931173086,-0.04417813569307327,0.9938173890113831,
623104,-0.017756126821041107,0.05050966516137123,1.0000114440917969,
623114,-0.01389885414391756,0.03693369776010513,1.0070242881774902,
623124,0.0013466659002006054,0.0394342765212059,1.011536955833435,
623134,0.026162641122937202,-9.05066990526393e-05,0.9882400035858154,
623144,0.0064744772389531136,-0.0010319460416212678,1.0653115510940552,
623154,-0.02978159859776497,-0.001670283148996532,1.0327228307724,
623164,0.00022361126320902258,0.014644833281636238,1.0368173122406006,
623174,0.012285454198718071,0.046018537133932114,0.9868281483650208,
623184,0.021880043670535088,-0.0013887624954804778,1.0648913383483887,
623194,0.002109730150550604,-0.02986922673881054,1.105934977531433,
623204,0.0005458354717120528,0.011441395618021488,1.0635963678359985,
623214,-0.014637697488069534,0.01441036444157362,1.023850917816162,
623224,-0.0019397669238969684,0.04510313272476196,1.0186970233917236,
623234,0.002929581794887781,0.03555034473538399,1.033185601234436,
623244,-0.002243639901280403,0.045957405120134354,0.9970250725746155,
623254,0.009841331280767918,0.015764085575938225,1.050748586654663,
623264,-0.00041855985182337463,0.045180220156908035,1.1112139225006104,
623274,0.007370159961283207,0.04900334030389786,1.0775973796844482,
623284,0.013194396160542965,-0.00013033508730586618,1.0997159481048584,
623294,0.004230943974107504,0.007304937578737736,1.0933685302734375,
623304,-0.0033096757251769304,-0.0027707957196980715,1.0562255382537842,
623314,-0.0023636065889149904,-0.022609131410717964,1.0752009153366089,
623324,0.02106275036931038,-0.011600978672504425,1.1392261981964111,
623334,-0.004762753378599882,0.009091021493077278,1.1265356540679932,
623344,0.004324394278228283,-0.015173676423728466,1.1491186618804932,
623354,0.02565794251859188,0.055332351475954056,1.1029319763183594,
623364,-0.006968650035560131,0.04352404549717903,1.1120460033416748,
623374,-0.012868903577327728,0.015185698866844177,1.1463974714279175,
623384,-0.0029476184863597155,-0.01199651975184679,1.1672770977020264,
623394,0.007631474174559116,0.03825726360082626,1.0729302167892456,
623404,-0.00529020419344306,0.05279555544257164,1.1038435697555542,
623414,0.010610082186758518,0.025432182475924492,1.1860612630844116,
623424,-0.002321957377716899,0.06417829543352127,1.1438846588134766,
623434,0.0015670458087697625,0.005623905919492245,1.1222630739212036,
623444,-0.020427236333489418,0.01910795085132122,1.1500475406646729,
623454,-0.021653085947036743,0.050230201333761215,1.1611384153366089,
623464,-0.00813799723982811,0.019171882420778275,1.1887603998184204,
623474,0.019407497718930244,-0.01674523390829563,1.1738300323486328,
623484,0.00907800905406475,0.01632007397711277,1.1229181289672852,
623494,0.038325898349285126,-0.004930293653160334,1.1741070747375488,
623504,0.013069055043160915,-0.0013446020893752575,1.1286978721618652,
623514,0.008644331246614456,0.03641442209482193,1.0638186931610107,
623524,-0.027435969561338425,0.016827723011374474,1.1358615159988403,
623534,0.008567080833017826,0.085966557264328,1.1501482725143433,
623544,-0.021639589220285416,0.04289422184228897,1.1144059896469116,
623554,-0.030061868950724602,0.02316448651254177,1.1427260637283325,
623564,-0.006148871500045061,-0.015050121583044529,1.160315752029419,
623574,-0.015058225952088833,0.07461095601320267,1.1270921230316162,
623584,0.0021030395291745663,0.07558517158031464,1.104184627532959,
623594,0.0290831346064806,0.015542562119662762,1.1087291240692139,
623604,-0.027214238420128822,0.020010817795991898,1.1182667016983032,
623614,-0.006265612784773111,0.03299818933010101,1.0993462800979614,
623624,0.009078019298613071,0.002759350696578622,1.0842541456222534,
623634,-0.0032552231568843126,0.021654319018125534,1.043699860572815,
623644,0.015130721963942051,0.011189913377165794,1.0282655954360962,
623654,0.0157321747392416,0.04691455513238907,1.0274369716644287,
623664,0.0177299864590168,0.005497600883245468,1.0486969947814941,
623674,0.002799157053232193,-0.0024076427798718214,1.0071437358856201,
623684,0.0022349257487803698,0.015698885545134544,0.9872575402259827,
623694,0.014969089068472385,0.044904742389917374,1.0195170640945435,
623704,-0.010499995201826096,0.032805297523736954,0.9712952971458435,
623714,0.014828434213995934,-0.029920605942606926,1.057771921157837,
623724,-0.014001287519931793,0.0007857599412091076,1.0383102893829346,
623734,-0.011834284290671349,0.03939530625939369,0.9866859316825867,
623744,-0.00665856571868062,0.05607331171631813,0.9310521483421326,
623754,0.03311854228377342,0.006612165831029415,1.0162413120269775,
623764,0.00659784534946084,-0.014043795876204967,1.0057634115219116,
623774,-0.024878723546862602,0.009009315632283688,0.9854122400283813,
623784,-0.0200855303555727,0.011930957436561584,0.9742724895477295,
623794,-0.016515294089913368,0.03127317130565643,0.9659572243690491,
623804,0.0022342107258737087,0.0025539800990372896,0.9458398222923279,
623814,-0.010559826157987118,-0.002793069463223219,0.9506383538246155,
623824,-0.004509518388658762,-0.0007330632070079446,0.9576911926269531,
623834,0.008466691710054874,0.01276975404471159,0.95717453956604,
623844,0.0034293450880795717,-0.019012151286005974,0.9284635186195374,
623854,0.01366002019494772,-0.0259845033288002,0.9464378952980042,
623864,-0.003013726556673646,-0.017482589930295944,0.9381977319717407,
623874,0.007632903754711151,0.02850932627916336,0.9394239187240601,
623884,0.021285733208060265,0.01982356794178486,0.9173333048820496,
623894,-0.02152606099843979,0.00267043081112206,0.8897164463996887,
623904,-0.021842392161488533,-0.003931698855012655,0.8907312750816345,
623914,-0.028417173773050308,0.011153989471495152,0.8886947631835938,
623924,-0.010129840113222599,0.001975912367925048,0.9055154323577881,
623934,-0.017689818516373634,0.06279508769512177,0.906308650970459,
623944,0.03964656963944435,-0.008063123561441898,0.9081822633743286,
623954,-0.0002520934503991157,0.023293759673833847,0.8733561038970947,
623964,0.0155648123472929,0.02480841428041458,0.8996897339820862,
623974,-0.032722149044275284,0.03127029538154602,0.9018752574920654,
623984,0.03256698325276375,-0.020846422761678696,0.9285861253738403,
623994,0.008570966310799122,0.023668432608246803,0.8845164775848389,
624004,-0.007464740891009569,0.03310748562216759,0.8921639323234558,
624014,-0.020468471571803093,0.019068598747253418,0.9216952323913574,
624024,0.007438228465616703,0.008880345150828362,0.8942447304725647,
624034,-0.0068947188556194305,-0.007363392971456051,0.8871003985404968,
624044,-0.011441536247730255,-0.009317833930253983,0.9235778450965881,
624054,-0.007295915856957436,0.013939918950200081,0.8974171876907349,
624064,-0.006586000788956881,0.007751125376671553,0.9071255326271057,
624074,-0.0008306067320518196,0.020500686019659042,0.9001687169075012,
624084,0.00465086055919528,-0.002873476594686508,0.9176637530326843,
624094,0.003536208299919963,-0.016327163204550743,0.9438682198524475,
624104,-0.01296250056475401,-0.0023062722757458687,0.9203125238418579,
624114,-0.01182670146226883,-0.0024634443689137697,0.8881554007530212,
624124,-0.022014394402503967,0.03326605260372162,0.9272884726524353,
624134,-0.017010308802127838,0.05828391760587692,0.8826079964637756,
624144,-0.013789956457912922,0.030773354694247246,0.9564411640167236,
624154,-0.00016590935410931706,0.004321273881942034,0.9669433832168579,
624164,0.011158213019371033,-0.023102663457393646,0.9332229495048523,
624174,-0.00019308585615362972,-0.017764419317245483,0.9965435266494751,
624184,0.00719884317368269,0.008142400532960892,0.9604511857032776,
624194,0.032769132405519485,0.0034413360990583897,0.9604335427284241,
624204,0.006471153348684311,0.02463805489242077,0.9491897821426392,
624214,-0.00038367827073670924,-0.0027055491227656603,0.9442028999328613,
624224,0.01030819769948721,-0.012429116293787956,0.9778067469596863,
624234,-0.02386317402124405,0.010153123177587986,0.9254958033561707,
624244,-0.01659790612757206,0.015141003765165806,0.9630582928657532,
624254,0.006659746635705233,0.004127104766666889,0.9668484330177307,
624264,-0.006241774186491966,0.0054129441268742085,0.9882714748382568,
624274,0.01745961606502533,0.02860690839588642,0.9499855637550354,
624284,-0.01382390409708023,0.006299395579844713,0.974459171295166,
624294,-0.0060592410154640675,-0.002632404211908579,0.9764068126678467,
624304,0.002158744726330042,-0.010708422400057316,0.9828881621360779,
624314,-0.0006147981039248407,0.009494997560977936,1.017087697982788,
624324,0.00712231732904911,0.02398121915757656,1.0031675100326538,
624334,-0.0023324794601649046,0.054322708398103714,1.0430922508239746,
624344,-0.027776576578617096,-0.00043073075357824564,1.0046395063400269,
624354,-0.015512204729020596,0.0225689634680748,0.992461621761322,
624364,-0.028513945639133453,0.005845976062119007,1.0244383811950684,
624374,-0.027608951553702354,0.13003002107143402,0.9701386094093323,
624384,0.012481681071221828,0.03827103227376938,0.9970908164978027,
624394,0.004902038257569075,-0.0033906842581927776,0.9986683130264282,
624404,-0.019995449110865593,-0.025445368140935898,1.0182843208312988,
624414,0.006861688569188118,0.009525405243039131,1.0051155090332031,
624424,-0.01086172740906477,-0.004136211238801479,0.9595418572425842,
624434,-0.010623919777572155,-0.009371408261358738,0.9752451777458191,
624444,-0.004036417230963707,0.006427816580981016,0.9745270609855652,
624454,0.021074051037430763,0.08889750391244888,0.9975155591964722,
624464,-0.017278030514717102,0.020229389891028404,0.9770694375038147,
624474,-0.01853535883128643,-0.028857575729489326,0.9691574573516846,
624484,-0.001862398348748684,-0.018141761422157288,0.9941917061805725,
624494,0.00010619372187647969,0.06652917712926865,0.9936820268630981,
624504,0.02174089290201664,0.10826745629310608,0.980870246887207,
624514,-0.005592109635472298,0.011907693929970264,1.0532008409500122,
624524,-0.032404039055109024,-0.01384291797876358,1.026112675666809,
624534,-0.0024473366793245077,0.03194798156619072,0.9767708778381348,
624544,0.014161868020892143,0.10759881138801575,0.9890214800834656,
624554,-0.012792968191206455,0.10051652789115906,1.0061264038085938,
624564,0.020278196781873703,-0.0009606205858290195,0.9936777353286743,
624574,-0.02225402742624283,0.04136162996292114,1.0569751262664795,
624584,-0.01720401644706726,1.6809146472951397e-05,1.035306453704834,
624594,0.003150736913084984,0.03416847810149193,1.0398749113082886,
624604,-0.003910257946699858,0.026812061667442322,1.0031143426895142,
624614,-0.019849682226777077,0.03494122624397278,1.0053116083145142,
624624,-0.018673669546842575,0.014508339576423168,1.0021220445632935,
624634,-0.0016939532943069935,0.022787153720855713,0.9746465086936951,
624644,-0.012564045377075672,0.01931067556142807,0.9868860840797424,
624654,-0.013956491835415363,-0.027070390060544014,0.9930475354194641,
624664,0.0020571891218423843,0.05635099858045578,0.9326273798942566,
624674,0.007359548006206751,0.03997226804494858,1.0051380395889282,
624684,0.02042815275490284,0.008217998780310154,1.0015820264816284,
624694,0.03075842559337616,-0.014454941265285015,1.0312308073043823,
624704,0.006291546393185854,-0.026019204407930374,1.008030891418457,
624714,-0.025131186470389366,-0.0025258376263082027,1.0006083250045776,
624724,-0.005716950166970491,0.03254391998052597,0.9916857481002808,
624734,-0.00033834902569651604,0.04415548965334892,0.9717591404914856,
624744,0.0026015935000032187,-0.00450179073959589,0.9634687900543213,
624754,2.78609568340471e-05,-0.0007189176976680756,0.98482346534729,
624764,-0.02201884798705578,0.036807652562856674,0.9831456542015076,
624774,-0.0021386088337749243,0.004137029405683279,0.9797109961509705,
624784,0.007174849510192871,-0.00018308270955458283,0.9839377999305725,
624794,-0.022528866305947304,-0.012039072811603546,0.9791930317878723,
624804,-0.014414265751838684,0.04683617874979973,0.9969284534454346,
624814,-0.010729004628956318,0.02258484996855259,0.9522417783737183,
624824,0.010981908068060875,0.02625487931072712,0.9587781429290771,
624834,-0.00527077866718173,0.014256118796765804,0.9348147511482239,
624844,-0.004308850504457951,-0.0055754529312253,0.976570725440979,
624854,-0.006389104761183262,0.012949900701642036,1.0139542818069458,
624864,-0.008951589465141296,0.00655246851965785,0.9800479412078857,
624874,0.004064429085701704,0.04218273237347603,0.969733715057373,
624884,0.0015372926136478782,0.04612920805811882,0.9369648694992065,
624894,0.013119703158736229,0.0035959118977189064,1.044615626335144,
624904,-0.015869159251451492,-0.014156172052025795,0.9335492253303528,
624914,0.02044261246919632,-0.041942983865737915,0.983479917049408,
624924,-0.014246515929698944,0.06035898998379707,1.021598219871521,
624934,-0.01586267165839672,0.048887044191360474,0.963561475276947,
624944,-1.1428542165958788e-05,0.03047914057970047,1.0379289388656616,
624954,-0.03005385398864746,0.009472372941672802,0.9759495854377747,
624964,-0.0013022921048104763,0.02714255079627037,0.9520004987716675,
624974,-0.0037934482097625732,0.010308284312486649,0.9890697598457336,
624984,-0.009454662911593914,-0.0008788661216385663,1.0262373685836792,
624994,-0.02240258827805519,0.06870453804731369,0.9793879985809326,
625004,0.02751534804701805,0.035246577113866806,1.0293381214141846,
625014,-0.005487822461873293,0.024034801870584488,1.0052011013031006,
625024,-0.004657951183617115,0.00527791865170002,1.0199917554855347,
625034,-0.01984475366771221,0.0028997769113630056,0.995930016040802,
625044,0.008635299280285835,-0.0057752737775444984,1.039132833480835,
625054,0.008658829145133495,0.007797410245984793,1.0157281160354614,
625064,0.0010436993325129151,-0.008337954990565777,1.062305212020874,
625074,-0.014335053972899914,0.009771519340574741,1.044429898262024,
625084,0.030391164124011993,0.025369388982653618,1.0371599197387695,
625094,-0.002037040889263153,-0.015011576004326344,1.0083932876586914,
625104,0.017644768580794334,0.01010079961270094,1.0443542003631592,
625114,0.0006673230091109872,0.020614294335246086,1.0793923139572144,
625124,0.00902449619024992,0.016082972288131714,1.0823345184326172,
625134,-0.023072415962815285,0.018929200246930122,1.0668119192123413,
625144,-0.010117258876562119,0.006336817052215338,1.0856208801269531,
625154,-0.005931861698627472,-0.017123030498623848,1.0523349046707153,
625164,-0.007823722437024117,0.012646677903831005,1.0620248317718506,
625174,-0.0185108482837677,0.02935441955924034,1.06740140914917,
625184,-0.009817074984312057,0.07000065594911575,1.0379652976989746,
625194,0.009554069489240646,-0.009508117102086544,1.0599442720413208,
625204,-0.02218487672507763,0.02103658951818943,1.0112013816833496,
625214,-0.0027418192476034164,0.02617550827562809,1.0239317417144775,
625224,0.007243087515234947,-0.005859050899744034,1.098759412765503,
625234,-0.01074560172855854,0.04479726403951645,1.0928747653961182,
625244,-0.012193355709314346,-0.008472132496535778,1.0831613540649414,
625254,0.0023376611061394215,0.02301795408129692,1.0790194272994995,
625264,0.012368855066597462,0.0006913646939210594,1.087081789970398,
625274,-0.00926393736153841,0.01722303219139576,1.0551213026046753,
625284,-0.03833719342947006,0.022610506042838097,1.0935137271881104,
625294,-0.012852191925048828,-0.010602564550936222,1.1696099042892456,
625304,-0.014600742608308792,0.002309968927875161,1.147133708000183,
625314,0.013593541458249092,0.03116978332400322,1.1307474374771118,
625324,0.0009490064112469554,0.018841713666915894,1.1081092357635498,
625334,0.005880565848201513,-0.022093946114182472,1.089876651763916,
625344,0.016703126952052116,-0.02157563529908657,1.1424182653427124,
625354,-0.004985472187399864,0.014355066232383251,1.1537714004516602,
625364,0.0002559632121119648,0.093077652156353,1.1071490049362183,
625374,-0.020871562883257866,0.021835865452885628,1.080680251121521,
625384,-0.04036245867609978,-0.045207295566797256,1.1173336505889893,
625394,0.006207671947777271,0.002214758424088359,1.1252243518829346,
625404,0.013112593442201614,0.08734346181154251,1.1103527545928955,
625414,-4.780157905770466e-05,0.00664936238899827,1.1005326509475708,
625424,-0.02741825580596924,0.022608278319239616,1.0871162414550781,
625434,0.00309531157836318,-0.0010016588494181633,1.1640446186065674,
625444,0.006354557815939188,-0.020587019622325897,1.1432076692581177,
625454,-0.0010174527997151017,0.050402283668518066,1.1218667030334473,
625464,0.004007363226264715,0.027201097458600998,1.1049540042877197,
625474,-0.026644814759492874,0.0032727012876421213,1.0704978704452515,
625484,-0.030990509316325188,-0.022885756567120552,1.1252789497375488,
625494,-0.00993866752833128,-0.018947971984744072,1.168575406074524,
625504,0.020421205088496208,0.012717185541987419,1.1069878339767456,
625514,0.019537877291440964,0.033159106969833374,1.0804885625839233,
625524,-0.02542249858379364,0.02482302300632,1.1238911151885986,
625534,-0.01107480563223362,-0.006276546511799097,1.134528398513794,
625544,-0.015293247066438198,0.006379513535648584,1.08291494846344,
625554,0.00872255302965641,0.0011518055107444525,1.1055622100830078,
625564,0.010811195708811283,-0.0009042888414114714,1.1547095775604248,
625574,-0.013365552760660648,0.009889527224004269,1.1463006734848022,
625584,-0.011470264755189419,0.0077132475562393665,1.138515591621399,
625594,-0.0010445971274748445,0.05451790615916252,1.038508415222168,
625604,-0.009267536923289299,-0.006568653043359518,1.0568010807037354,
625614,0.010557166300714016,-0.03184681758284569,1.1064538955688477,
625624,-0.01724422350525856,0.0070183416828513145,1.0783499479293823,
625634,-0.028567563742399216,0.07722301781177521,1.0604830980300903,
625644,0.026617225259542465,0.0006856971303932369,1.0956307649612427,
625654,-0.0012829148909077048,0.02483762614428997,1.0329642295837402,
625664,0.009909313172101974,0.015059364028275013,1.052789568901062,
625674,-0.01232481375336647,0.08304019272327423,0.9936132431030273,
625684,-0.011292194947600365,0.0591629333794117,1.0113599300384521,
625694,-0.003342609154060483,-0.029851598665118217,1.0569308996200562,
625704,-0.02857424132525921,0.007695406675338745,0.9910991191864014,
625714,-0.0020696274004876614,0.08104614168405533,1.0205638408660889,
625724,-0.02741115540266037,0.04803710803389549,0.991349995136261,
625734,-0.01467902585864067,0.029067842289805412,1.0088067054748535,
625744,0.0008254007552750409,0.0010924788657575846,0.9862011671066284,
625754,-0.009551453404128551,-0.01880936324596405,0.9863952398300171,
625764,0.0068461536429822445,-0.006233454216271639,0.9728960990905762,
625774,0.005521067883819342,-0.003845588769763708,0.9887480139732361,
625784,0.002441155258566141,0.015228384174406528,0.9979537725448608,
625794,-0.012290355749428272,0.010184098035097122,0.9463469386100769,
625804,-0.012440962716937065,0.006656150333583355,0.9390754103660583,
625814,0.0019029488321393728,-0.03990274295210838,0.969429075717926,
625824,0.003074600826948881,0.04233061149716377,0.9120484590530396,
625834,0.008589943870902061,0.051916029304265976,0.9379401206970215,
625844,0.006857066415250301,0.023795604705810547,0.966201663017273,
625854,0.028794946148991585,-0.029144862666726112,0.991007387638092,
625864,0.018728408962488174,-0.020563598722219467,0.969190239906311,
625874,-0.009895418770611286,0.029912393540143967,0.9814473986625671,
625884,-0.012171066366136074,0.009435039944946766,0.9379629492759705,
625894,-0.012421730905771255,0.024379029870033264,0.949995756149292,
625904,0.018244443461298943,-0.01655004546046257,0.9354494214057922,
625914,0.030057936906814575,-0.02161516062915325,0.9370526671409607,
625924,-0.017678285017609596,0.019112786278128624,0.9282628893852234,
625934,0.013020997866988182,-0.003904898650944233,0.894410252571106,
625944,-0.031175609678030014,0.06233610957860947,0.8506585955619812,
625954,-0.021538516506552696,0.06226290017366409,0.8720123767852783,
625964,-0.02147258259356022,0.030338842421770096,0.8700640797615051,
625974,0.004161371383816004,-0.001765546971000731,0.9100788235664368,
625984,-0.005508428439497948,0.021618615835905075,0.9232468605041504,
625994,0.0020742297638207674,-0.01120251789689064,0.899182140827179,
626004,0.005656436085700989,-0.019333189353346825,0.9002744555473328,
626014,-0.0014219122240319848,-0.0033532383386045694,0.8802704215049744,
626024,-0.009303486905992031,0.0036746591795235872,0.8955740928649902,
626034,-0.013401515781879425,0.015497877262532711,0.8828772306442261,
626044,1.69041031767847e-05,-0.021672846749424934,0.8667652010917664,
626054,0.001776783261448145,0.0024657153990119696,0.8816273808479309,
626064,0.0023410089779645205,0.041563957929611206,0.8658216595649719,
626074,-0.006713239476084709,0.003974973224103451,0.8669357299804688,
626084,-0.007431031670421362,0.016752010211348534,0.9159489274024963,
626094,0.0035889458376914263,0.005267124157398939,0.9083788990974426,
626104,0.001962481066584587,-0.01700577326118946,0.8792955875396729,
626114,0.011521412990987301,0.004938123282045126,0.9044783711433411,
626124,-0.012743668630719185,0.019055355340242386,0.8620045781135559,
626134,0.02530241385102272,0.08082514256238937,0.8969767689704895,
626144,0.06325200945138931,0.037230104207992554,0.9312887787818909,
626154,0.006127168424427509,0.005387252662330866,0.9346685409545898,
626164,-0.03252434358000755,0.059631459414958954,0.9025249481201172,
626174,0.028199054300785065,-0.010687488131225109,0.932550847530365,
626184,-0.01297628041356802,-0.016083622351288795,0.8990458250045776,
626194,-0.0032901631202548742,0.04054640233516693,0.9161642789840698,
626204,-0.018120046705007553,0.07781917601823807,0.9155246615409851,
626214,-0.0068242596462368965,0.016175294294953346,0.9261347651481628,
626224,-0.009078452363610268,0.011222274042665958,0.9184231162071228,
626234,-0.0008121709688566625,0.0008339562336914241,0.9065853953361511,
626244,-0.0017225499032065272,0.016261490061879158,0.90274578332901,
626254,-0.0013486928073689342,-0.00329003157094121,0.941386342048645,
626264,0.003470341907814145,0.016667507588863373,0.9334642887115479,
626274,0.007688385900110006,-0.003508642315864563,0.9420761466026306,
626284,-0.026670480147004128,-0.019085492938756943,0.9270477890968323,
626294,-0.009427088312804699,0.007979944348335266,0.9070557951927185,
626304,0.001760045881383121,0.011531271040439606,0.931056797504425,
626314,-0.012733083218336105,0.008078094571828842,0.9392982721328735,
626324,-0.025381525978446007,0.013319536112248898,0.9186002016067505,
626334,-0.023145578801631927,0.03502172231674194,0.9603452682495117,
626344,-0.006535670254379511,0.06139020621776581,0.9749685525894165,
626354,-0.020575465634465218,0.09176824986934662,0.9382781386375427,
626364,-0.00572814280167222,0.00870590377599001,0.982769787311554,
626374,-0.008237653411924839,0.022100578993558884,0.974549412727356,
626384,-0.010482914745807648,-0.018332969397306442,0.9833958745002747,
626394,0.031231030821800232,0.00592355290427804,0.9910007119178772,
626404,0.01965809427201748,0.007678481750190258,0.9679651260375977,
626414,0.005185994319617748,-0.0028829602524638176,0.9546574950218201,
626424,-0.027373509481549263,0.024923503398895264,0.9663620591163635,
626434,-0.003762716194614768,0.04359401389956474,0.9676607251167297,
626444,0.02300536073744297,0.028745831921696663,0.9978200793266296,
626454,0.01432874333113432,0.03985216096043587,0.9784032106399536,
626464,0.04041851684451103,-0.028019724413752556,1.035939335823059,
626474,-0.015280043706297874,0.0009737182408571243,0.9826890230178833,
626484,-0.0277868565171957,0.023086337372660637,1.0113848447799683,
626494,0.0017920188838616014,-0.01423498336225748,1.032495141029358,
626504,-0.02895546332001686,0.023383963853120804,0.9915463328361511,
626514,-0.010443697683513165,0.029499975964426994,1.03226900100708,
626524,-0.00481523759663105,0.04071894660592079,0.9908214807510376,
626534,0.003951165359467268,0.02707851491868496,0.9816756844520569,
626544,-0.007547005079686642,0.019381359219551086,1.0017153024673462,
626554,-0.008795343339443207,0.009282882325351238,0.9900855422019958,
626564,0.005005347542464733,0.026659036055207253,0.9847988486289978,
626574,-0.02169930562376976,0.030116481706500053,0.976356029510498,
626584,-0.02477993071079254,-0.008757617324590683,0.9885395765304565,
626594,-0.0027242337819188833,0.018822869285941124,0.9772874116897583,
626604,-0.0049248551949858665,-0.013340283185243607,1.0261616706848145,
626614,0.0031578808557242155,0.09424641728401184,1.0043085813522339,
626624,0.04082963988184929,-0.00838556233793497,1.0371218919754028,
626634,0.014664212241768837,-0.027773631736636162,1.0646573305130005,
626644,-0.03685745224356651,0.01364795584231615,0.972108781337738,
626654,0.0104979882016778,0.006087766028940678,1.0247279405593872,
626664,-0.04163501039147377,0.04531404748558998,1.0194387435913086,
626674,4.935208198730834e-05,0.07508644461631775,0.972137451171875,
626684,0.005482219625264406,0.019686268642544746,0.9975487589836121,
626694,0.015028084628283978,-0.01574716717004776,1.0313109159469604,
626704,-0.01102858129888773,-0.005406223703175783,0.9961260557174683,
626714,3.866040788125247e-05,0.017700375989079475,0.9953134059906006,
626724,-0.013027011416852474,0.00018018975970335305,0.9926997423171997,
626734,-0.003874840447679162,0.022140856832265854,0.9500179886817932,
626744,0.017921555787324905,0.010638602077960968,0.9817774295806885,
626754,-0.01689309813082218,0.020755913108587265,1.0127360820770264,
626764,-0.011882820166647434,0.067540742456913,0.981117308139801,
626774,-0.003633508924394846,0.04959537461400032,1.0194721221923828,
626784,-0.012782575562596321,0.02168501541018486,1.0119788646697998,
626794,-0.007054632995277643,0.03729264810681343,0.9140814542770386,
626804,0.011237232014536858,-0.009534896351397038,1.012115240097046,
626814,-0.02550663985311985,0.07216528803110123,0.9859536290168762,
626824,-0.012658808380365372,0.13854707777500153,1.0053751468658447,
626834,0.010382391512393951,0.010733895935118198,1.0441642999649048,
626844,-0.021023277193307877,0.017947662621736526,0.9967156648635864,
626854,0.025427814573049545,-0.016736270859837532,0.9880439043045044,
626864,-0.01566498726606369,-0.014534941874444485,1.0214430093765259,
626874,-0.00877960491925478,0.013062655925750732,1.0249276161193848,
626884,0.0037246569991111755,0.02466702088713646,1.0057237148284912,
626894,0.002105363877490163,0.036725711077451706,1.0087556838989258,
626904,-0.012351921759545803,0.03829820826649666,0.9981929659843445,
626914,-0.01576485112309456,0.03143249452114105,0.9580925107002258,
626924,0.02635021135210991,-0.02011723630130291,1.0068798065185547,
626934,0.011973400600254536,-0.013456457294523716,1.0256189107894897,
626944,7.601497145515168e-06,-0.001946444041095674,0.994316577911377,
626954,-0.01657864823937416,0.05507087707519531,1.0194741487503052,
626964,-0.01931777223944664,0.0293787382543087,1.0258809328079224,
626974,-0.0011605295585468411,0.06572996824979782,0.9340372681617737,
626984,0.0036405676510185003,0.006448306608945131,0.9832268953323364,
626994,-0.013111112639307976,0.026035360991954803,0.9684953093528748,
627004,0.006698019336909056,-0.022585831582546234,1.0209068059921265,
627014,0.0020090893376618624,-0.007627675775438547,0.9988173246383667,
627024,-0.004793195519596338,0.011923498474061489,1.006040334701538,
627034,0.0008996132528409362,-0.026794375851750374,0.9920260906219482,
627044,0.017468513920903206,0.04687357321381569,0.9810594916343689,
627054,-0.009192420169711113,0.0018395939841866493,1.0145783424377441,
627064,-0.02704549767076969,-0.005712972488254309,1.034921646118164,
627074,-0.005820806138217449,-0.007528010290116072,1.0273815393447876,
627084,-0.006753710098564625,0.02036060020327568,1.0159627199172974,
627094,0.014536267146468163,0.05923326313495636,0.9746851921081543,
627104,0.024656834080815315,-0.00503248255699873,0.9920644760131836,
627114,-0.008966593071818352,-0.02565341256558895,1.0095397233963013,
627124,-0.007626240607351065,-0.022651301696896553,0.9988283514976501,
627134,-0.022728104144334793,0.07310929149389267,0.9767704010009766,
627144,0.0058061424642801285,0.027845004573464394,1.025854229927063,
627154,-0.015165585093200207,0.023218555375933647,0.9637101292610168,
627164,-0.001202660147100687,0.01678566448390484,0.9701300859451294,
627174,-0.014154710806906223,0.014608633704483509,0.9536194801330566,
627184,-0.0033785616979002953,0.002023427514359355,1.0024402141571045,
627194,-0.019283683970570564,0.002587550552561879,0.9894946217536926,
627204,-0.0056734848767519,0.018097128719091415,0.9747684597969055,
627214,0.013537826016545296,0.0182231143116951,1.0186997652053833,
627224,-0.004700988996773958,0.018596626818180084,1.0515477657318115,
627234,-0.0030245562084019184,-0.007407329045236111,1.0407086610794067,
627244,-0.005805349908769131,-0.001068762270733714,0.9847245812416077,
627254,0.002543350448831916,0.00966440886259079,1.018561840057373,
627264,0.0017805045936256647,0.040796853601932526,1.05116605758667,
627274,-0.01273613516241312,-0.0019332895753905177,1.0434147119522095,
627284,-0.008646976202726364,-0.00039655843283981085,0.991496205329895,
627294,0.008228408172726631,0.0908249244093895,0.9824343323707581,
627304,0.017444079741835594,0.045173004269599915,1.0369445085525513,
627314,0.002715677721425891,-0.04020840674638748,1.0291709899902344,
627324,-0.030535060912370682,-0.026439210399985313,1.0213443040847778,
627334,0.0033489051274955273,0.07128436863422394,1.0221277475357056,
627344,0.011486060917377472,0.06375173479318619,1.0091110467910767,
627354,0.014768733642995358,-0.0004199647519271821,1.0048527717590332,
627364,-0.004410949535667896,-0.011912910267710686,1.0090476274490356,
627374,0.020442849025130272,0.0022331506479531527,0.9902760982513428,
627384,0.012265302240848541,0.008537397719919682,0.9928054809570312,
627394,-0.009272933006286621,-0.008099428378045559,1.029724359512329,
627404,-0.01927359774708748,0.002757842419669032,0.9829756617546082,
627414,0.0055914754047989845,0.022418631240725517,0.9703723192214966,
627424,0.008417935110628605,0.008138727396726608,0.9812970161437988,
627434,0.0022891389671713114,-0.014771707355976105,1.0319173336029053,
627444,-0.008481473661959171,0.008362527005374432,0.9737438559532166,
627454,0.005856676027178764,0.03235461190342903,0.9925287365913391,
627464,-0.012968156486749649,0.02838369645178318,0.9808069467544556,
627474,-0.009481660090386868,-0.015935232862830162,1.010040283203125,
627484,0.002372589660808444,0.006848363671451807,0.9546917676925659,
627494,0.005676882341504097,-0.010814189910888672,1.0084542036056519,
627504,-0.010456699877977371,0.03318982198834419,1.055895447731018,
627514,-0.023470347747206688,-0.008257738314568996,0.951076090335846,
627524,0.005259883590042591,0.0010257678804919124,1.013108730316162,
627534,-0.049203019589185715,0.036123111844062805,1.018275260925293,
627544,-0.010723362676799297,0.10188625752925873,0.975368082523346,
627554,0.02387925423681736,-0.013083222322165966,0.991463840007782,
627564,0.01761706918478012,-0.028546549379825592,0.9936899542808533,
627574,-0.005686304531991482,-0.02610938623547554,1.021290898323059,
627584,0.005693572107702494,0.00012893456732854247,1.0069608688354492,
627594,7.673956861253828e-05,0.012785233557224274,0.9835838675498962,
627604,-0.00851831492036581,0.007848386652767658,1.0228379964828491,
627614,-0.01201628614217043,0.02186191827058792,0.9898332953453064,
627624,-0.017558937892317772,0.016677463427186012,0.9549217224121094,
627634,0.007283292710781097,-0.008909645490348339,0.9711709022521973,
627644,0.007432103622704744,-0.03368958830833435,1.0568455457687378,
627654,-0.00772478710860014,0.03884250670671463,1.0020793676376343,
627664,-0.009257923811674118,0.0626760795712471,0.9794037342071533,
627674,-0.005551664158701897,0.02826540917158127,0.9912002086639404,
627684,-0.010329131036996841,-0.04656076058745384,1.0262484550476074,
627694,-0.014058633707463741,0.014964170753955841,0.9721354246139526,
627704,-0.0017005351837724447,0.15071573853492737,1.0235222578048706,
627714,0.005413936451077461,-0.02721758745610714,1.0362403392791748,
627724,-0.06200713664293289,-0.018840668722987175,0.9808458685874939,
627734,0.02323213964700699,0.026906467974185944,1.0312241315841675,
627744,0.003695851657539606,0.04609712213277817,0.9965643286705017,
627754,0.0008740637567825615,0.03511025756597519,1.030400037765503,
627764,-0.009614143520593643,0.0035174349322915077,0.9929037094116211,
627774,0.0042959763668477535,0.018786394968628883,0.9872203469276428,
627784,-0.01950194500386715,-0.014083066955208778,1.012581467628479,
627794,0.007025574799627066,-0.011308056302368641,1.0091036558151245,
627804,0.014260084368288517,0.008086035959422588,0.9861955642700195,
627814,-0.013515663333237171,0.05519230291247368,1.018794298171997,
627824,-0.026430800557136536,0.018980447202920914,1.0295039415359497,
627834,-0.011579418554902077,0.01694507524371147,0.9575192928314209,
627844,0.018649376928806305,-0.010050523094832897,0.9766485095024109,
627854,-0.007276399526745081,0.007151822093874216,1.015430212020874,
627864,-0.024041367694735527,0.027737213298678398,1.0198400020599365,
627874,-0.016578521579504013,0.12840797007083893,0.9362615346908569,
627884,-0.004333000164479017,0.022582946345210075,1.0185036659240723,
627894,-0.025492673739790916,0.023814082145690918,0.9471279382705688,
627904,-0.00566842732951045,0.04726511985063553,0.9587984681129456,
627914,0.003598890732973814,0.10788846760988235,1.0208629369735718,
627924,0.0010164477862417698,-0.02192453294992447,1.0165761709213257,
627934,-0.005754662211984396,-0.013258468359708786,1.0335078239440918,
627944,-0.006818592082709074,-0.003061863360926509,1.0079498291015625,
627954,-0.00340220401994884,0.012554153800010681,1.0059324502944946,
627964,-0.0020596468821167946,0.012591039761900902,1.0277843475341797,
627974,-0.0013333007227629423,0.003908195067197084,1.019850730895996,
627984,0.0072626215405762196,0.008702361024916172,0.9968248605728149,
627994,-0.004786891397088766,-0.009588995017111301,1.0373036861419678,
628004,0.002244532573968172,-0.005451981443911791,1.074468731880188,
628014,-0.015822311863303185,0.010708469897508621,1.0364620685577393,
628024,0.003318966832011938,0.010039452463388443,0.9906023740768433,
628034,0.011722886934876442,0.0041250125505030155,1.0317301750183105,
628044,-0.010874303989112377,0.005496980156749487,1.068237066268921,
628054,-0.007491965778172016,-0.005173905752599239,1.0597947835922241,
628064,-0.03538466617465019,-0.004230988211929798,0.970280647277832,
628074,0.0067011150531470776,0.037675485014915466,0.9788225889205933,
628084,0.010890268720686436,0.04361313208937645,1.0788556337356567,
628094,-0.009039941243827343,-0.0025820196606218815,1.0389378070831299,
628104,-0.006535389460623264,-0.025030983611941338,1.0193864107131958,
628114,0.0009654369205236435,0.03633629530668259,1.0151681900024414,
628124,-0.00011505461588967592,0.06953985244035721,0.9724437594413757,
628134,0.003315957263112068,0.038583897054195404,0.997391939163208,
628144,0.00937317218631506,0.009564291685819626,0.9576703906059265,
628154,-0.009390581399202347,-0.004597202874720097,0.989453911781311,
628164,-0.020490454509854317,0.0020768442191183567,0.993028461933136,
628174,-0.007697451394051313,-0.0016115012113004923,0.9828570485115051,
628184,0.007642835378646851,0.008976271376013756,1.014516830444336,
628194,0.009148940443992615,0.006070571485906839,1.0125982761383057,
628204,0.009866462089121342,0.00557975098490715,1.0310860872268677,
628214,-0.018304653465747833,0.012140477076172829,1.001072645187378,
628224,-0.01727255992591381,0.007818145677447319,1.001168131828308,
628234,0.002066520508378744,0.038575612008571625,0.9600524306297302,
628244,0.030844980850815773,-0.012753200717270374,1.0313903093338013,
628254,-0.015005976893007755,0.001015317626297474,1.036727786064148,
628264,-0.0038232808001339436,-0.01930324174463749,0.9994500875473022,
628274,-0.02303665317595005,0.07568749040365219,0.9812439680099487,
628284,-0.0008378923521377146,0.028836911544203758,1.0195707082748413,
628294,-0.022502657026052475,0.05170518904924393,0.9397846460342407,
628304,0.00903369951993227,-0.027105223387479782,0.9981151819229126,
628314,-0.02863185666501522,0.023564375936985016,0.9771245718002319,
628324,0.003946248907595873,0.06054195016622543,0.9865126609802246,
628334,0.011732703074812889,0.05145721882581711,0.997833251953125,
628344,-0.01944129168987274,0.008126571774482727,1.0489048957824707,
628354,0.01329230796545744,0.021042773500084877,1.0659388303756714,
628364,0.0012285478878766298,-0.006239363458007574,0.9974299073219299,
628374,0.004516151733696461,0.031034884974360466,0.9955826997756958,
628384,-0.014199769124388695,0.011137778870761395,1.010374903678894,
628394,0.013053507544100285,0.015845205634832382,1.0141502618789673,
628404,-0.014459599740803242,-0.01495937816798687,1.0004063844680786,
628414,0.0005981992580927908,-0.007406505290418863,1.020944595336914,
628424,-0.011833224445581436,0.02284196764230728,0.9981573820114136,
628434,-0.012465567328035831,0.01630643755197525,1.0227664709091187,
628444,-0.030311254784464836,0.006429977715015411,1.0162746906280518,
628454,-0.026128577068448067,-0.006147217005491257,0.9779296517372131,
628464,0.005007169675081968,0.026789085939526558,0.9417297840118408,
628474,-0.00019489199621602893,0.00952883716672659,1.0314700603485107,
628484,-0.019988665357232094,0.0651388093829155,1.027106523513794,
628494,-0.011028911918401718,0.08159735053777695,0.9794140458106995,
628504,-0.002117041265591979,0.02479090541601181,1.031875729560852,
628514,-0.03121306374669075,0.025735491886734962,0.9897738695144653,
628524,-0.007131254766136408,0.02295725978910923,1.002891182899475,
628534,-0.027645962312817574,0.05589686706662178,1.0061300992965698,
628544,0.0041109975427389145,0.015435880050063133,1.0368895530700684,
628554,-0.012396887876093388,0.031645484268665314,1.0301034450531006,
628564,-0.005483918357640505,0.0016408085357397795,1.0241822004318237,
628574,-0.006615182384848595,0.0031079985201358795,1.0686830282211304,
628584,0.007804297376424074,-0.020698340609669685,1.0205885171890259,
628594,0.007609041873365641,-0.00919467955827713,1.0070431232452393,
628604,0.0036172778345644474,0.04201050102710724,1.0141593217849731,
628614,-0.007142532151192427,0.02230544574558735,1.0066206455230713,
628624,-0.008018562570214272,0.007897979579865932,0.9618794322013855,
628634,0.002203894779086113,-0.036346547305583954,0.9994098544120789,
628644,-0.01211905013769865,0.03739628940820694,1.0108098983764648,
628654,-0.012922145426273346,0.012471133843064308,0.9934104681015015,
628664,-0.009557083249092102,0.04105673357844353,1.0019878149032593,
628674,-0.006377588491886854,-0.0006840581772848964,1.0455204248428345,
628684,-0.009540166705846786,0.06141466274857521,0.9226748943328857,
628694,0.009103620424866676,0.02173765003681183,0.9962733387947083,
628704,-0.028722628951072693,0.08618263900279999,1.0226876735687256,
628714,-0.013315742835402489,0.03122233971953392,1.0035951137542725,
628724,0.017341768369078636,0.007026235572993755,1.0265625715255737,
628734,-0.014081152155995369,-0.0073989639058709145,1.0107574462890625,
628744,-0.0074082850478589535,0.05167839676141739,1.032531976699829,
628754,-0.016773082315921783,0.03556131199002266,1.0112676620483398,
628764,0.0006652422016486526,0.012066282331943512,0.9925979375839233,
628774,-0.007088649086654186,-0.0003272420435678214,1.055530071258545,
628784,0.02531292289495468,0.02089620754122734,1.032307744026184,
628794,0.009686156176030636,-0.006186564452946186,0.9870722889900208,
628804,0.0023513452615588903,0.01864510588347912,1.0151983499526978,
628814,-0.008369933813810349,0.011692535132169724,1.0010743141174316,
628824,-0.01373881846666336,-0.010920527391135693,0.9773386716842651,
628834,-0.011168486438691616,-0.017066242173314095,0.9845236539840698,
628844,0.0014961271081119776,-0.01752016693353653,1.011839747428894,
628854,-0.008233507163822651,0.039065171033144,0.9798715710639954,
628864,-0.0037246281281113625,0.02024267055094242,0.9981431365013123,
628874,-0.01674075424671173,-0.004585701506584883,1.0163521766662598,
628884,-0.014721149578690529,-0.03593450039625168,1.0072591304779053,
628894,-0.0035367871169000864,0.05297029763460159,0.9689509272575378,
628904,-0.0016950195422396064,0.03372026979923248,1.002511978149414,
628914,0.01984957978129387,0.020473649725317955,1.0036596059799194,
628924,0.007009465247392654,-0.0033152345567941666,1.0408029556274414,
628934,0.0010958705097436905,-0.0015172772109508514,1.0716617107391357,
628944,-0.012777794152498245,0.04603508487343788,0.9912896752357483,
628954,0.014536616392433643,0.06301511079072952,0.9551778435707092,
628964,0.008588687516748905,0.02279863879084587,1.0511794090270996,
628974,-0.0033413362689316273,-0.022902650758624077,1.009242057800293,
628984,-0.0163602065294981,-0.006862975191324949,1.0032368898391724,
628994,-0.008549893274903297,0.05668726935982704,1.030413031578064,
629004,-0.012015802785754204,0.041757434606552124,1.0018658638000488,
629014,-0.010644881054759026,0.01201813854277134,0.9639142751693726,
629024,-0.03760938346385956,0.021564029157161713,0.9662904739379883,
629034,0.004837567452341318,0.0684143677353859,0.989923357963562,
629044,-0.007712031248956919,-0.0023137135431170464,0.9925053119659424,
629054,-0.022991156205534935,0.04050265625119209,0.9933826327323914,
629064,0.01920737326145172,-0.007340701762586832,1.0239918231964111,
629074,-0.013370166532695293,0.0695614293217659,1.0041157007217407,
629084,0.014047427102923393,0.0034967975225299597,1.0052841901779175,
629094,-0.012984245084226131,0.004517535679042339,0.9945372939109802,
629104,0.007770300377160311,0.04269998148083687,0.9965295791625977,
629114,0.0038921863306313753,-0.007521426770836115,0.9792442321777344,
629124,-0.0009951911633834243,-0.015771012753248215,0.9823704361915588,
629134,-0.0017768818652257323,-0.016446683555841446,0.9639340043067932,
629144,-0.03586506471037865,0.02714807726442814,0.9158177375793457,
629154,0.015254252590239048,0.016412558034062386,0.9826521873474121,
629164,-0.005687347613275051,0.0023566042073071003,1.0165152549743652,
629174,-0.02474018931388855,-0.0254189632833004,1.0188195705413818,
629184,0.029107190668582916,0.09276579320430756,0.9677327871322632,
629194,0.014140915125608444,0.016427211463451385,1.0042922496795654,
629204,-0.01845279335975647,-0.003143238602206111,1.0114476680755615,
629214,-0.018105994910001755,0.01726618967950344,0.9941257834434509,
629224,0.019520126283168793,0.0796910896897316,0.9856943488121033,
629234,0.03845691680908203,-0.012792708352208138,1.084429383277893,
629244,-0.001896754140034318,-0.023976296186447144,1.021087884902954,
629254,-0.01699914038181305,0.013296093791723251,0.9848512411117554,
629264,-0.020408056676387787,0.09611272811889648,0.9805930256843567,
629274,-0.0026819794438779354,0.03890937566757202,1.0164216756820679,
629284,-0.0026606936007738113,0.018899839371442795,0.9494655132293701,
629294,0.0047572460025548935,-0.015404127538204193,0.9988853335380554,
629304,-0.010518467985093594,-0.00016375428822357208,1.010064721107483,
629314,-0.020755646750330925,0.15720410645008087,1.0039303302764893,
629324,0.011706382967531681,0.024557175114750862,1.0549352169036865,
629334,-0.01783447153866291,0.02475539594888687,0.9949356317520142,
629344,-0.005335406865924597,-0.007422410883009434,1.007279396057129,
629354,-0.021018018946051598,0.000781873008236289,1.0117230415344238,
629364,-0.026427701115608215,0.024487093091011047,1.0122486352920532,
629374,-0.01990335062146187,0.04811719059944153,1.0023858547210693,
629384,0.0007702935836277902,0.01771244965493679,1.034474492073059,
629394,-0.00464559905230999,0.016881026327610016,1.0586633682250977,
629404,-0.03322368860244751,-0.0023863092064857483,1.0137462615966797,
629414,-0.006516963709145784,0.011033541522920132,1.0339726209640503,
629424,-0.00816628709435463,-0.001125988201238215,1.0317068099975586,
629434,-0.00100541056599468,0.023474808782339096,0.9919393658638,
629444,0.0025824878830462694,0.0008732933783903718,1.0120643377304077,
629454,0.0014805274549871683,0.008419133722782135,0.9762666821479797,
629464,-0.00458566565066576,-0.008480447344481945,0.9823445081710815,
629474,-0.0062189106829464436,-0.009394128806889057,0.9983517527580261,
629484,-0.005440613720566034,0.00908613484352827,0.9866148829460144,
629494,-0.010637862607836723,0.025590335950255394,0.9906951189041138,
629504,-0.0026360033079981804,0.035874608904123306,1.0051811933517456,
629514,-0.017182188108563423,0.027158882468938828,1.0207130908966064,
629524,-0.010168242268264294,-0.007935441099107265,1.027884602546692,
629534,-0.028158776462078094,0.02198350988328457,0.959465503692627,
629544,-0.008571382611989975,0.07917602360248566,0.9694965481758118,
629554,0.00485039409250021,0.0547708123922348,0.9850447773933411,
629564,0.021286478266119957,0.0035586284939199686,1.0323742628097534,
629574,-0.01206563226878643,0.0063332850113511086,1.0684432983398438,
629584,-0.015782300382852554,-0.022988539189100266,1.0215572118759155,
629594,-0.028120243921875954,0.0682925283908844,0.9693940877914429,
629604,0.009210501797497272,0.04078908637166023,1.031653642654419,
629614,-0.00478459894657135,0.05564543604850769,0.9583489298820496,
629624,0.021660102531313896,0.0020409871358424425,1.0073844194412231,
629634,-0.016250092536211014,-8.216628339141607e-05,0.9936138987541199,
629644,-0.01755494251847267,0.02550358697772026,1.0067323446273804,
629654,0.00991007313132286,0.00932681281119585,1.03166925907135,
629664,0.009667154401540756,0.012737474404275417,0.9967877268791199,
629674,-0.013359757140278816,0.01807170733809471,1.0060256719589233,
629684,-0.01970740593969822,0.004858491942286491,1.0089777708053589,
629694,-0.010872269049286842,0.02542319893836975,0.9905771613121033,
629704,-0.010206053964793682,0.012894567102193832,1.004550814628601,
629714,-0.012049869634211063,-0.0021284015383571386,1.0490397214889526,
629724,-0.006440203171223402,0.00774589367210865,0.995496928691864,
629734,-0.015378518030047417,0.03885456919670105,0.9918596148490906,
629744,-0.001907686935737729,0.04401092603802681,1.0029041767120361,
629754,-0.0068663046695292,-0.006131511181592941,1.0260508060455322,
629764,-0.001900864066556096,0.02332421950995922,0.9830675721168518,
629774,-0.004965305328369141,0.02550097182393074,1.0112144947052002,
629784,-0.006795327179133892,0.005355889443308115,1.0236680507659912,
629794,-0.009628339670598507,-0.0010072413133457303,1.0250346660614014,
629804,0.006231801118701696,0.06363248080015182,0.9751755595207214,
629814,0.011606605723500252,0.02591424062848091,1.0291869640350342,
629824,-0.014029543846845627,0.0013134460896253586,1.0491355657577515,
629834,-0.017479058355093002,-0.005555934738367796,1.0414646863937378,
629844,-0.012080716900527477,0.11881209909915924,0.9660958647727966,
629854,0.028155537322163582,0.0773831307888031,0.9974225163459778,
629864,-0.009239901788532734,0.01213710755109787,1.0840027332305908,
629874,-0.013276795856654644,-0.016734806820750237,1.0715703964233398,
629884,-0.03344285860657692,0.067398801445961,0.9742151498794556,
629894,0.035469330847263336,0.13091832399368286,0.9658278822898865,
629904,0.010481763631105423,0.008479231037199497,1.0946812629699707,
629914,-0.01598820462822914,-0.04332919418811798,1.0258452892303467,
629924,-0.04328567907214165,-0.004556217696517706,1.0001531839370728,
629934,-0.006577495019882917,0.08561345189809799,0.9971634149551392,
629944,0.00106071587651968,0.06641262769699097,0.9810415506362915,
629954,0.03289754316210747,0.01847117394208908,0.9946793913841248,
629964,-0.01554052159190178,-0.03533034399151802,0.976851761341095,
629974,-0.002517442451789975,-0.0033441903069615364,0.9742512106895447,
629984,-0.011266227811574936,0.023521726951003075,0.9898572564125061,
629994,0.023412523791193962,0.06432069092988968,0.9571139216423035,
630004,0.004739709198474884,0.028653206303715706,0.972331166267395,
630014,-0.01595531590282917,0.008257059380412102,1.0076059103012085,
630024,-0.014884347096085548,0.013656722381711006,0.980902910232544,
630034,-0.007702598813921213,0.04636836424469948,0.993013322353363,
630044,0.003948976285755634,0.0015736938221380115,1.0129138231277466,
630054,-0.02537754364311695,0.0009289250010624528,0.9932646751403809,
630064,0.010054375045001507,0.015606763772666454,1.0282487869262695,
630074,-0.010197334922850132,0.008862358517944813,1.0105904340744019,
630084,0.004863996058702469,0.013669797219336033,0.9763097763061523,
630094,-0.011556319892406464,0.025274530053138733,1.0048446655273438,
630104,-0.004386499989777803,0.0009236041223630309,1.0204397439956665,
630114,0.007363256067037582,-0.005120120942592621,0.9450020790100098,
630124,-0.009603623300790787,0.019905246794223785,0.9906451106071472,
630134,-0.029110046103596687,0.03434336930513382,1.055606484413147,
630144,-0.020333105698227882,0.030463807284832,0.9720339775085449,
630154,-0.0047924332320690155,0.02719399891793728,0.9222094416618347,
630164,-0.008683526888489723,0.008607701398432255,1.0263326168060303,
630174,-0.016246303915977478,0.044176265597343445,1.0054218769073486,
630184,-0.012248042039573193,0.08316720277070999,1.0048929452896118,
630194,-0.007236107252538204,0.03965383395552635,1.0504274368286133,
630204,-0.017496643587946892,0.030106237158179283,0.9853896498680115,
630214,-0.004333495162427425,0.05643153563141823,0.9625567197799683,
630224,-0.006551102269440889,0.05394952371716499,0.9983444213867188,
630234,0.0015520688612014055,0.021555418148636818,1.002158284187317,
630244,-0.001483422820456326,0.0069621047005057335,1.018513798713684,
630254,0.018186571076512337,-0.018024584278464317,1.0127224922180176,
630264,-0.012963817454874516,-0.0016543851234018803,1.0295416116714478,
630274,-0.01335169281810522,0.005237099714577198,1.010987401008606,
630284,-0.011913429014384747,0.023425841704010963,0.9942052364349365,
630294,0.012344014830887318,0.02142399363219738,1.0114039182662964,
630304,-0.015763692557811737,-0.016718747094273567,0.9891263246536255,
630314,0.005002373363822699,-0.018420418724417686,0.9862805604934692,
630324,0.005485102999955416,0.005728761199861765,0.9984689950942993,
630334,-0.011841502040624619,0.012021337635815144,1.0245121717453003,
630344,-0.011508210562169552,0.02105368860065937,0.9952394366264343,
630354,-0.017680088058114052,0.00991606805473566,0.9878599643707275,
630364,0.0006439503631554544,-0.0029641715809702873,1.0015177726745605,
630374,-0.002071916125714779,0.011292408220469952,1.0016118288040161,
630384,-0.004229402169585228,0.03520689159631729,0.9856783747673035,
630394,-0.012716060504317284,0.05996914207935333,0.9862353801727295,
630404,-0.0005078852991573513,0.01750943809747696,1.0046323537826538,
630414,-0.007993774488568306,0.013283670879900455,1.0116822719573975,
630424,0.00397855881601572,0.032427042722702026,0.9841735363006592,
630434,-0.011191535741090775,0.0636124536395073,1.0330065488815308,
630444,-0.0033516432158648968,-0.0029324747156351805,1.0751179456710815,
630454,-0.04183775931596756,0.006514109205454588,0.98036789894104,
630464,-0.0009257393539883196,0.028991777449846268,0.9837208986282349,
630474,-0.014280018396675587,0.11738510429859161,1.0305052995681763,
630484,-0.010382698848843575,0.011314023286104202,1.0400114059448242,
630494,-0.014464423060417175,0.0008258093730546534,1.0039024353027344,
630504,0.0215176772326231,-0.00472301384434104,1.0393013954162598,
630514,-0.007568827364593744,0.04083170369267464,1.0242646932601929,
630524,-0.011719056405127048,0.03379043936729431,1.0081214904785156,
630534,-0.011326504871249199,0.016950594261288643,0.9851012229919434,
630544,0.015057156793773174,-0.0006024482427164912,1.0208215713500977,
630554,-0.02463853918015957,-0.02034321427345276,1.0222196578979492,
630564,-0.019326284527778625,-0.02004106156527996,0.9750359058380127,
630574,0.0013825426576659083,-0.009948892518877983,0.9886325597763062,
630584,-0.005242235492914915,0.030778121203184128,1.0065782070159912,
630594,-0.009686149656772614,0.029521804302930832,0.969404399394989,
630604,-0.004475660156458616,0.04195811226963997,0.9920939803123474,
630614,-0.004506563767790794,-0.018910236656665802,0.9835016131401062,
630624,-0.0076042222790420055,0.006589161232113838,0.9619640707969666,
630634,-0.009570456109941006,-0.001113535137847066,0.9935287833213806,
630644,0.024125004187226295,0.1411047726869583,0.9642362594604492,
630654,0.006634198594838381,0.03217824921011925,1.0412126779556274,
630664,-0.023575345054268837,-0.015101756900548935,1.0421714782714844,
630674,0.0011809971183538437,-0.016428060829639435,1.0016454458236694,
630684,-0.011000298894941807,0.0603305958211422,1.0355044603347778,
630694,-0.006812767591327429,0.15598414838314056,0.9356895089149475,
630704,0.03291793912649155,0.045850563794374466,0.9732801914215088,
630714,-0.028205186128616333,0.0026137898676097393,0.9886875748634338,
630724,-0.00906179379671812,-0.00808363314718008,0.9702786803245544,
630734,-0.035553764551877975,0.03502614051103592,0.9585379362106323,
630744,0.004954263102263212,0.04816395044326782,1.0054067373275757,
630754,0.01628073677420616,0.01643921062350273,1.0035691261291504,
630764,0.006842008791863918,-0.010959184728562832,1.0185942649841309,
630774,0.01223575696349144,0.0010151773458346725,1.0388723611831665,
630784,-0.013379016891121864,-0.002906316425651312,0.9934768080711365,
630794,0.010272996500134468,0.02570253051817417,1.0155508518218994,
630804,-0.008554362691938877,0.015003019943833351,0.9872345924377441,
630814,0.014192329719662666,0.017875047400593758,0.9890632629394531,
630824,-0.0030077274423092604,0.007819191552698612,1.0117006301879883,
630834,0.004895626101642847,0.016406694427132607,0.9887623190879822,
630844,0.0061357286758720875,-0.01651507057249546,1.0106772184371948,
630854,-0.007421338465064764,4.507135599851608e-05,0.9682151079177856,
630864,0.0027519334107637405,0.011811546050012112,0.9952279329299927,
630874,-0.021802330389618874,0.05944507196545601,1.0184166431427002,
630884,-0.008679932914674282,0.017689352855086327,1.0186142921447754,
630894,-0.013222001492977142,0.018420547246932983,0.9468958377838135,
630904,-0.001211910042911768,-0.008699518628418446,1.0165055990219116,
630914,-0.01992073841392994,0.044309601187705994,1.01522958278656,
630924,0.01622931845486164,0.03782033175230026,1.0101110935211182,
630934,0.010433235205709934,0.029646698385477066,1.074541449546814,
630944,-0.021919868886470795,-0.006506946869194508,1.018802285194397,
630954,-0.014498068019747734,0.02256115898489952,1.0272724628448486,
630964,-0.011563854292035103,0.023011464625597,1.0133899450302124,
630974,-0.017793474718928337,0.0514272004365921,0.9975290298461914,
630984,0.008640463463962078,0.013784454204142094,1.003921389579773,
630994,0.003631131025031209,-0.008014940656721592,1.00626802444458,
631004,0.00030681738280691206,-0.008181309327483177,1.0194144248962402,
631014,0.0019809359218925238,-0.005013209767639637,1.0217698812484741,
631024,-0.0036795884370803833,-0.0017335612792521715,0.9826496839523315,
631034,0.003623957047238946,0.012482402846217155,1.0129631757736206,
631044,-0.01530122384428978,-0.00654344679787755,0.9865418672561646,
631054,-0.008084231056272984,0.006721111945807934,0.9702158570289612,
631064,-0.001435275305993855,0.012212489731609821,0.9664633274078369,
631074,0.0038472183514386415,-0.017507893964648247,1.0304263830184937,
631084,-0.00020652994862757623,0.004754915833473206,0.9725081920623779,
631094,0.0030351756140589714,0.037034377455711365,0.9991605281829834,
631104,-0.020765267312526703,0.04135329648852348,1.006596565246582,
631114,-0.023750271648168564,0.0077170878648757935,0.9546406269073486,
631124,0.004859141539782286,0.013290630653500557,0.988995373249054,
631134,-0.0012240727664902806,0.045705270022153854,0.9809705018997192,
631144,0.021347878500819206,0.07939358800649643,0.9518862366676331,
631154,0.020328348502516747,0.02350829541683197,1.0576746463775635,
631164,0.004149760119616985,-0.011609144508838654,1.024580717086792,
631174,-0.02674785815179348,0.03298502415418625,1.0109971761703491,
631184,-0.021725496277213097,0.021303625777363777,1.034295678138733,
631194,-0.025916812941432,0.09981340914964676,0.9417376518249512,
631204,0.03545789420604706,0.03261111304163933,0.98639976978302,
631214,-0.033484961837530136,0.03351042419672012,0.9876796007156372,
631224,0.00943833589553833,-0.011094929650425911,1.0009087324142456,
631234,-0.0023654899559915066,0.007463020738214254,0.9877833127975464,
631244,-0.006124838721007109,0.011358603835105896,1.001776933670044,
631254,0.0026525238063186407,0.0004802956245839596,1.0250451564788818,
631264,0.01079266145825386,0.021936899051070213,0.9741321802139282,
631274,-0.010092344135046005,-0.0020515001378953457,1.0108829736709595,
631284,-0.02293543331325054,0.02129533514380455,0.9891529679298401,
631294,-0.0006180032505653799,0.022955577820539474,0.988817572593689,
631304,0.003341472940519452,0.008666827343404293,1.0154846906661987,
631314,0.013400525785982609,0.0033723674714565277,0.9925576448440552,
631324,-0.00922987051308155,0.026244642212986946,1.0017188787460327,
631334,-0.013430721126496792,0.010658019222319126,1.0221892595291138,
631344,-0.003493565134704113,0.01473158784210682,1.0072916746139526,
631354,0.007412481587380171,-0.004028067458420992,0.9978748559951782,
631364,-0.0022707597818225622,0.02814113348722458,1.0427919626235962,
631374,-0.003666170872747898,0.030125955119729042,1.0213181972503662,
631384,0.004373163916170597,-0.009908953681588173,1.048401951789856,
631394,0.002516259206458926,-0.0016267703613266349,1.0463881492614746,
631404,-0.018986396491527557,0.015363700687885284,1.022188663482666,
631414,-0.024794049561023712,0.05418122559785843,0.9409096837043762,
631424,0.016483590006828308,0.011837952770292759,0.9872213006019592,
631434,-0.0007658157264813781,0.013766106218099594,1.0157550573349,
631444,0.0004320914449635893,-0.007473003584891558,0.9992180466651917,
631454,-0.020952340215444565,0.06707783788442612,1.0130711793899536,
631464,-0.005832619499415159,0.031153306365013123,1.0472233295440674,
631474,-0.006848209537565708,0.047117672860622406,0.9376093745231628,
631484,0.01107029989361763,0.03795624524354935,0.9526762962341309,
631494,-0.023958181962370872,0.03508748114109039,0.9881947040557861,
631504,0.0030391046311706305,-0.01409651804715395,1.0416440963745117,
631514,-0.002624720800668001,0.0468469113111496,0.9987088441848755,
631524,0.010989490896463394,0.019905174151062965,1.0134395360946655,
631534,-0.01006115972995758,0.03580453246831894,0.9718422293663025,
631544,0.0033438161481171846,0.013651124201714993,1.019504189491272,
631554,-0.010204699821770191,0.04085493087768555,1.0092875957489014,
631564,0.0008804422104731202,0.0063660903833806515,1.0086545944213867,
631574,-0.00592065928503871,0.017886975780129433,1.0194259881973267,
631584,-0.006357147358357906,-0.009506411850452423,1.0317169427871704,
631594,-0.013730342499911785,0.046760983765125275,1.0159937143325806,
631604,0.001417058170773089,0.013686763122677803,0.999386191368103,
631614,-0.003919359762221575,-0.00023341258929576725,1.0443787574768066,
631624,0.007607941050082445,-8.306025847559795e-05,1.021109938621521,
631634,-0.019513575360178947,0.026329321786761284,1.0024880170822144,
631644,-0.00043277579243294895,0.00878719612956047,1.008335828781128,
631654,-0.006118327379226685,0.0069196466356515884,1.032922625541687,
631664,0.005125278607010841,0.008605699054896832,0.9913109540939331,
631674,0.014574320986866951,0.0412316620349884,0.9682880640029907,
631684,-0.009219312109053135,-0.00984407588839531,1.017734169960022,
631694,-0.018173320218920708,0.01947733946144581,1.0244909524917603,
631704,0.007998664863407612,0.010011481121182442,0.991980254650116,
631714,0.015007095411419868,0.017303524538874626,0.9841973781585693,
631724,0.002802260685712099,0.01802450232207775,1.0288827419281006,
631734,-0.02053609862923622,0.028183182701468468,1.0222688913345337,
631744,-0.016357623040676117,-0.014891729690134525,0.9919760823249817,
631754,0.013701729476451874,0.01870468258857727,0.9891596436500549,
631764,-0.001742836437188089,0.04230818152427673,1.0500032901763916,
631774,-0.007777517195791006,0.04041030630469322,1.0572175979614258,
631784,-0.019636141136288643,-0.0030476897954940796,0.9884481430053711,
631794,0.0015428989427164197,0.050797827541828156,0.9483265280723572,
631804,0.0012306735152378678,0.025699805468320847,1.0286452770233154,
631814,-0.01599293202161789,0.05497446656227112,1.0243279933929443,
631824,-0.0008842764073051512,0.004234754014760256,0.9980742335319519,
631834,0.016047878190875053,0.000790021033026278,1.0474438667297363,
631844,-0.014410125091671944,0.016937177628278732,0.9982770681381226,
631854,-0.0037523515056818724,0.06369515508413315,0.9877570867538452,
631864,0.004613178316503763,0.026359692215919495,0.9722936749458313,
631874,0.009461167268455029,-0.009933870285749435,1.012305498123169,
631884,-0.00997951440513134,0.020314546301960945,1.0431307554244995,
631894,0.041693251579999924,0.0004767968785017729,1.0268017053604126,
631904,0.010315951891243458,0.017438041046261787,1.0262877941131592,
631914,-0.0003901856835000217,0.00798138976097107,1.0306600332260132,
631924,-0.013351562432944775,0.01641717366874218,0.9988206624984741,
631934,0.037214916199445724,0.00979647133499384,0.9764515161514282,
631944,0.007969371043145657,0.007633675821125507,1.0440037250518799,
631954,0.014955190941691399,-0.003337254049256444,1.0366339683532715,
631964,0.00283861649222672,0.01009365450590849,1.0072237253189087,
631974,-0.004081758204847574,0.012700931169092655,1.0211714506149292,
631984,-0.01772807165980339,0.006153063382953405,0.9899389743804932,
631994,-0.005114944186061621,0.024992050603032112,0.9731019735336304,
632004,-0.007732864003628492,-0.013995756395161152,0.986824095249176,
632014,0.0017612300580367446,-0.02401410974562168,1.017134428024292,
632024,0.012365784496068954,-0.008813759312033653,0.9996274709701538,
632034,-0.010254905559122562,0.06566079705953598,1.0082406997680664,
632044,0.0009444017778150737,-0.009433816187083721,1.0448148250579834,
632054,-0.02687360718846321,0.03194992616772652,0.9337224364280701,
632064,0.009602103382349014,0.003364515257999301,0.9863730669021606,
632074,-0.023370519280433655,0.09098516404628754,0.9832223653793335,
632084,0.04115897789597511,0.012090657837688923,0.9833551645278931,
632094,0.027033038437366486,-0.005977245047688484,1.0451287031173706,
632104,-0.021909361705183983,-0.012426379136741161,1.011663556098938,
632114,0.004003029316663742,0.03722093254327774,1.0030330419540405,
632124,-0.01248010154813528,0.021266499534249306,1.0062530040740967,
632134,-0.010792281478643417,0.0222685094922781,1.0132791996002197,
632144,-0.007469791918992996,0.012814512476325035,0.9661852121353149,
632154,0.001009157276712358,0.012287292629480362,0.9747277498245239,
632164,-0.014399249106645584,0.006289881654083729,0.9707844257354736,
632174,0.009253923781216145,-0.004433098714798689,0.9975139498710632,
632184,-0.0014824883546680212,0.00024557922733947635,0.9966568946838379,
632194,-0.0008777874172665179,0.013985935598611832,0.9866793751716614,
632204,-0.0059158517979085445,0.021501954644918442,0.996405839920044,
632214,-0.022394707426428795,0.010988722555339336,1.0053398609161377,
632224,-0.008008595556020737,0.013887346722185612,1.0038377046585083,
632234,-0.005936792585998774,0.00046697427751496434,0.9999602437019348,
632244,0.0026124247815459967,0.01834149658679962,0.9741944074630737,
632254,-0.010303959250450134,0.03407333046197891,0.9500115513801575,
632264,-0.0009564592619426548,0.011208763346076012,0.9738031625747681,
632274,-0.005085569340735674,0.029453661292791367,0.8754891753196716,
632284,-0.014307692646980286,0.028003530576825142,0.9623611569404602,
632294,-0.005613221321254969,0.040450289845466614,0.9777969121932983,
632304,0.025554390624165535,0.024995731189846992,1.019797682762146,
632314,0.008875827305018902,-0.01598171703517437,1.0169306993484497,
632324,-0.007716144900768995,-0.01484476774930954,1.0051954984664917,
632334,-0.005603092722594738,0.014438268728554249,1.0097846984863281,
632344,-0.007246778812259436,0.048489246517419815,0.9809213280677795,
632354,0.013582199811935425,0.03239189088344574,0.9960698485374451,
632364,0.0008085714071057737,0.018746523186564445,0.9889618754386902,
632374,-0.005041556898504496,0.00011617586278589442,0.9866609573364258,
632384,-0.018149180337786674,0.021554838865995407,0.9592918157577515,
632394,-0.007987151853740215,0.008230484090745449,0.9835078716278076,
632404,-0.001614159788005054,0.013286241330206394,0.995027482509613,
632414,-0.0015498701250180602,0.017540868371725082,1.0092217922210693,
632424,0.012383472174406052,0.0007966088596731424,1.0569446086883545,
632434,0.010438492521643639,-0.001091049867682159,1.0197890996932983,
632444,-0.00037208059802651405,0.008488106541335583,1.01934814453125,
632454,-0.011071688495576382,0.02933517098426819,1.0171833038330078,
632464,0.015887143090367317,0.06629136204719543,0.9869182109832764,
632474,-0.022896988317370415,0.010357407853007317,0.9667422771453857,
632484,0.008193453773856163,-0.04198538884520531,1.0256952047348022,
632494,-0.004396014381200075,0.006509539671242237,0.9706298112869263,
632504,-0.006596498191356659,0.04553835466504097,1.0137649774551392,
632514,0.008025589399039745,0.01012649480253458,1.0733197927474976,
632524,-0.02883436344563961,0.008285236544907093,0.980179488658905,
632534,0.005494918208569288,0.016368506476283073,0.9628697633743286,
632544,-0.015365696512162685,0.04837678745388985,1.0058900117874146,
632554,-0.002443653764203191,0.022219516336917877,1.0173503160476685,
632564,-0.008142574690282345,0.012326264753937721,1.0201226472854614,
632574,0.04415876790881157,-0.0008273616549558938,1.03452467918396,
632584,-0.005950134713202715,0.006560519337654114,1.0171291828155518,
632594,-0.011712715961039066,0.04027713090181351,1.0409061908721924,
632604,-0.013133005239069462,0.04277177155017853,1.0218673944473267,
632614,0.03395017609000206,0.012562171556055546,0.9941051006317139,
632624,0.004175069276243448,-0.004995335824787617,1.0351762771606445,
632634,0.014290953986346722,0.017838450148701668,1.0528172254562378,
632644,-0.007793149910867214,0.0040317620150744915,0.9911162853240967,
632654,0.01840088702738285,0.04790255054831505,0.9853103756904602,
632664,-0.028445523232221603,-0.0037879408337175846,1.0076768398284912,
632674,-0.0024292960297316313,-0.021566500887274742,1.0352133512496948,
632684,0.001321922056376934,-0.0044057732447981834,0.985763430595398,
632694,0.0047826445661485195,0.04028666019439697,1.0062285661697388,
632704,-0.022474324330687523,0.03502611815929413,0.9839636087417603,
632714,0.0011622026795521379,-0.020768996328115463,1.0487496852874756,
632724,-0.003081497736275196,0.0006707712891511619,0.9713312387466431,
632734,-0.005561095662415028,0.03331104665994644,0.992129385471344,
632744,-0.009694283828139305,0.11004636436700821,0.9908000230789185,
632754,-0.0053968774154782295,-0.008995989337563515,1.0460964441299438,
632764,-0.028919706121087074,0.035063087940216064,0.9247323274612427,
632774,-0.017993099987506866,0.08469156920909882,0.9520271420478821,
632784,0.012019429355859756,0.12026069313287735,1.0449012517929077,
632794,-0.003945503383874893,0.003223216161131859,1.020074725151062,
632804,-0.0064277914352715015,0.01389350462704897,1.0258255004882812,
632814,-0.01719714142382145,0.0010505756363272667,1.0035401582717896,
632824,-0.014037365093827248,0.06923648715019226,0.9922165274620056,
632834,0.014563805423676968,0.022364120930433273,1.0286095142364502,
632844,-0.006944931112229824,-3.778063444315194e-07,1.0608305931091309,
632854,-0.005014332942664623,-0.027303343638777733,0.996338963508606,
632864,0.004329761490225792,0.012004210613667965,1.0099295377731323,
632874,0.004936372861266136,0.02409285306930542,1.0076706409454346,
632884,-0.008909923955798149,0.008662736974656582,1.0074973106384277,
632894,0.007075571455061436,-0.006379259750247002,0.9905415177345276,
632904,0.014765501022338867,-0.01730976067483425,1.0108000040054321,
632914,0.016934528946876526,0.06766372919082642,1.0286740064620972,
632924,-0.01574365235865116,0.05299268662929535,0.9953922033309937,
632934,-0.019871091470122337,0.004958732053637505,0.9485681056976318,
632944,0.01985008269548416,-0.05131928622722626,0.9959571957588196,
632954,0.004446990322321653,0.12679745256900787,1.033348798751831,
632964,-0.012057923711836338,0.027968239039182663,1.064620852470398,
632974,-0.04001816734671593,-0.020456435158848763,0.9629719853401184,
632984,0.004360330291092396,0.009564992971718311,0.9624042510986328,
632994,0.01575969159603119,0.11645742505788803,1.0063602924346924,
633004,0.01945018768310547,-0.020223241299390793,1.050160527229309,
633014,-0.03740939870476723,-0.03187960386276245,1.0052226781845093,
633024,0.004044924862682819,0.038495831191539764,1.0527979135513306,
633034,-0.011237168684601784,0.014138709753751755,1.0129019021987915,
633044,0.0054441215470433235,0.03751499578356743,0.987434446811676,
633054,-0.010553078725934029,-0.01066230982542038,1.0294073820114136,
633064,0.007899194955825806,0.02530616894364357,1.0606460571289062,
633074,-0.0013229515170678496,0.0038742113392800093,1.029223084449768,
633084,0.005067599471658468,0.027103034779429436,0.9954171180725098,
633094,-0.009160116314888,0.008107791654765606,0.9906232953071594,
633104,0.0012683506356552243,0.013104202225804329,1.0298417806625366,
633114,0.006972822360694408,0.017111262306571007,1.0333516597747803,
633124,-0.008337212726473808,0.014480172656476498,1.0046045780181885,
633134,0.004417381249368191,0.022330043837428093,1.0010706186294556,
633144,-0.005790415685623884,-0.01649443618953228,0.9925183653831482,
633154,0.007487847935408354,0.03728737309575081,1.0268141031265259,
633164,-0.023288585245609283,0.04642975330352783,1.0032185316085815,
633174,-0.011029605753719807,0.021702885627746582,0.9597961902618408,
633184,-0.006135954055935144,-0.0029301808681339025,0.9282002449035645,
633194,-0.007976559922099113,0.06658369302749634,1.0047677755355835,
633204,-0.021086441352963448,0.05011816322803497,1.0564507246017456,
633214,-0.028374237939715385,-0.016761817038059235,0.9810692667961121,
633224,-0.012785651721060276,0.027488473802804947,0.9425942301750183,
633234,-0.006585285998880863,0.047539904713630676,0.9970678091049194,
633244,0.0008417522767558694,0.06630899012088776,1.0208721160888672,
633254,-0.018654653802514076,-0.003682822221890092,0.9955762624740601,
633264,-0.011620462872087955,0.0012739227386191487,1.0283222198486328,
633274,-0.011847794987261295,0.01902584917843342,0.9963468313217163,
633284,-0.007228920701891184,0.03208939731121063,0.9891738891601562,
633294,-0.012687191367149353,0.018401937559247017,1.0244033336639404,
633304,0.015856681391596794,-0.004920299164950848,1.0248727798461914,
633314,-0.018128402531147003,0.005678941961377859,0.9979596734046936,
633324,0.010269220918416977,0.011304100044071674,1.0311437845230103,
633334,-0.0010124505497515202,0.01147974282503128,1.0236636400222778,
633344,0.013384869322180748,0.0026403279043734074,0.9993507266044617,
633354,-0.007644128054380417,0.011277551762759686,0.9830979108810425,
633364,0.014171824790537357,-0.014925984665751457,1.040752649307251,
633374,-0.005097137298434973,0.023117948323488235,1.0452134609222412,
633384,-0.017488742247223854,0.021463749930262566,0.9899851679801941,
633394,-0.023943301290273666,0.029200367629528046,0.951861560344696,
633404,0.01870504394173622,-0.016008682548999786,1.0054792165756226,
633414,-0.01043567806482315,0.040292225778102875,0.9828237891197205,
633424,-0.01636987365782261,0.04232688248157501,0.9861035943031311,
633434,0.0021927794441580772,0.04056205600500107,1.0439246892929077,
633444,-0.021267158910632133,0.00042904127622023225,0.9915735721588135,
633454,-0.010579187422990799,0.030775966122746468,0.9600709080696106,
633464,-0.018203498795628548,0.02942091040313244,0.9842313528060913,
633474,0.0025749155320227146,0.041815727949142456,0.9947513341903687,
633484,0.00894929189234972,0.008341437205672264,1.0089426040649414,
633494,0.025267675518989563,-0.0012326621217653155,0.9852468371391296,
633504,-0.023663697764277458,-0.013677745126187801,1.0213090181350708,
633514,0.0017580569256097078,0.003420601598918438,1.034584879875183,
633524,-0.0055030956864356995,0.017721528187394142,0.9883849024772644,
633534,0.016242973506450653,0.031696781516075134,0.9940672516822815,
633544,-0.008539961650967598,-0.007264339365065098,1.0166888236999512,
633554,0.008977137506008148,-0.020011277869343758,1.0032908916473389,
633564,0.011170102283358574,0.03414347022771835,0.9464313387870789,
633574,0.0047209723852574825,0.013124189339578152,1.0238333940505981,
633584,-0.009009077213704586,0.02752998098731041,0.9936448335647583,
633594,-0.015346549451351166,-0.006227410864084959,0.9728556871414185,
633604,0.001454956247471273,0.005154058337211609,0.9723010659217834,
633614,-0.0028864359483122826,0.024674057960510254,0.9965242147445679,
633624,0.026623547077178955,0.040225669741630554,0.9781238436698914,
633634,0.006277319043874741,0.026657402515411377,1.0530441999435425,
633644,-0.01382898073643446,0.004075381904840469,1.0485408306121826,
633654,-0.04852636903524399,0.026857584714889526,0.9708383083343506,
633664,-0.0018689254065975547,0.0697823315858841,0.979947030544281,
633674,-0.004771670326590538,0.030012812465429306,0.9714853167533875,
633684,0.005465563852339983,0.00790445227175951,0.983292818069458,
633694,-0.02880553901195526,0.023625783622264862,0.9522468447685242,
633704,0.011148215271532536,-0.004062112420797348,0.9920874834060669,
