time,acc.x,acc.y,acc.z,
364326,-0.0035550047177821398,0.030544735491275787,1.0115463733673096,
364336,0.006151197943836451,0.026931189000606537,1.001861572265625,
364346,-0.004428036976605654,0.005019613076001406,1.01095449924469,
364356,0.011381941847503185,-0.007032883353531361,1.0145213603973389,
364366,-0.023204443976283073,-0.009372478350996971,1.0628161430358887,
364376,0.02635537087917328,0.026691745966672897,1.0058478116989136,
364386,0.012418262660503387,-0.01854909583926201,1.0549378395080566,
364396,-0.004105851519852877,0.002944501116871834,1.046085000038147,
364406,-0.0026179617270827293,0.003600348951295018,1.0028550624847412,
364416,0.003917798865586519,0.06467454880475998,0.9634333848953247,
364426,0.02527196705341339,0.0566910021007061,1.01797616481781,
364436,-0.007683717645704746,0.02768002450466156,1.051709532737732,
364446,0.012403675355017185,0.02844860963523388,1.0318841934204102,
364456,-0.0005498301470652223,0.01883232221007347,1.0096144676208496,
364466,0.012685736641287804,-0.015122559852898121,1.0171685218811035,
364476,-0.012211845256388187,0.0023644398897886276,1.0192296504974365,
364486,-0.001232609385624528,-0.010533269494771957,0.9897363185882568,
364496,0.007300195749849081,0.008862589485943317,0.9819509983062744,
364506,-0.012240299955010414,0.007666195742785931,1.0225131511688232,
364516,-0.008777184411883354,-0.011947708204388618,0.9484178423881531,
364526,-0.006824636831879616,0.012570173479616642,0.91774982213974,
364536,0.004582822788506746,0.051822271198034286,0.9730609655380249,
364546,-0.014406682923436165,0.058552052825689316,0.998937726020813,
364556,0.021509621292352676,0.10661134868860245,1.0058804750442505,
364566,-0.017397241666913033,0.016134491190314293,1.0447264909744263,
364576,-0.014831340871751308,-0.011019302532076836,1.0071641206741333,
364586,0.013676431961357594,-0.0032907912973314524,0.9806927442550659,
364596,0.006518542300909758,0.009763509966433048,0.9919183850288391,
364606,4.8316316679120064e-05,0.012078175321221352,0.9941741824150085,
364616,-0.014916873537003994,-0.018541529774665833,1.0116214752197266,
364626,0.016002604737877846,0.024058828130364418,0.9624603390693665,
364636,-0.012216112576425076,-0.0058883861638605595,0.9982556104660034,
364646,-0.008047102019190788,0.008147560991346836,1.0139409303665161,
364656,-0.009025050327181816,0.05504719540476799,0.9826260805130005,
364666,0.018529320135712624,0.09213781356811523,0.9839930534362793,
364676,0.006220407318323851,0.023524245247244835,1.0299253463745117,
364686,0.018135251477360725,0.022569900378584862,1.0138126611709595,
364696,-0.007302391808480024,0.0010367821669206023,1.015123963356018,
364706,0.0074742138385772705,-0.0025205269921571016,1.0167368650436401,
364716,-0.0004100285586901009,-0.0025649466551840305,1.0014748573303223,
364726,-0.0032851083669811487,-0.014807775616645813,0.9651392698287964,
364736,-0.0025970751885324717,0.02376658469438553,0.9868021011352539,
364746,0.0004620454565156251,0.005986705422401428,0.9769495725631714,
364756,0.017429169267416,-0.0030448525212705135,1.0069358348846436,
364766,0.001261910772882402,-0.02846173383295536,1.0465283393859863,
364776,-0.008937831036746502,0.0033134666737169027,1.0044662952423096,
364786,0.009175023064017296,0.16933223605155945,0.9286623597145081,
364796,0.003575136186555028,0.016334686428308487,0.978610634803772,
364806,-0.022288065403699875,0.04508153721690178,0.958289623260498,
364816,-0.0005705976509489119,0.008719631470739841,0.9944743514060974,
364826,-0.009189936332404613,0.061550114303827286,0.9975000023841858,
364836,-0.00550577137619257,0.03554729372262955,0.9766268730163574,
364846,-0.0010847884695976973,-0.0012599601177498698,0.9853541254997253,
364856,0.005994684994220734,-0.007523151580244303,1.0077147483825684,
364866,0.005499538499861956,-0.0009128434467129409,0.9933643341064453,
364876,0.015200317837297916,0.01798662729561329,0.9676713347434998,
364886,0.006589608266949654,-0.012535502202808857,1.0380806922912598,
364896,-0.0016495822928845882,0.013301077298820019,0.9974827766418457,
364906,0.004568872507661581,-0.006577628199011087,0.9932591915130615,
364916,-0.02062717080116272,0.08256882429122925,0.9966199994087219,
364926,-0.01973983272910118,0.02068713679909706,0.9551048278808594,
365196,0.0012691087322309613,0.0069710323587059975,0.9877309799194336,
365236,0.007721157744526863,0.0035432688891887665,0.9703141450881958,
365246,0.0018245797837153077,0.013682214543223381,0.9696202874183655,
365256,-0.011939719319343567,-0.011998933739960194,0.9725154638290405,
365266,0.007051748689264059,0.07186469435691833,0.9438896179199219,
365276,0.02498229779303074,0.0640888661146164,0.9962433576583862,
365286,-0.024190472438931465,0.014592831954360008,1.0366212129592896,
365296,-0.010135078802704811,-0.01174135971814394,0.9779458045959473,
365306,-0.010154751129448414,-0.010234695859253407,1.0050384998321533,
365316,-0.005595718510448933,-0.017843082547187805,0.9952574968338013,
365326,-0.023185333237051964,-0.005335601046681404,1.0022286176681519,
365336,-0.011994121596217155,0.005232286639511585,0.9906516075134277,
365346,0.005153746344149113,-0.005293081980198622,1.011789083480835,
365356,0.006009452044963837,0.03693371266126633,1.008643388748169,
365366,-0.010310952551662922,0.02878064289689064,1.0109760761260986,
365376,0.015396245755255222,0.06351564824581146,0.9724850654602051,
365386,0.023620178923010826,0.02040315605700016,1.0108487606048584,
365396,-0.013500467874109745,0.038486771285533905,1.0220063924789429,
365406,-0.01017436571419239,0.016097232699394226,0.9804508090019226,
365416,-0.011922737583518028,0.0745173990726471,1.0097637176513672,
365426,-0.008764106780290604,-0.0023802360519766808,1.0187020301818848,
365436,0.011834662407636642,-0.0009089449304156005,1.0401344299316406,
365446,0.01041983813047409,-0.0016425607027485967,0.9931933283805847,
365456,-0.002175869420170784,-0.0002660711470525712,0.9820231199264526,
365466,0.002219046000391245,0.05009634792804718,1.0181859731674194,
365476,-0.01318995002657175,0.03661045432090759,1.0039238929748535,
365486,0.016803279519081116,0.04385869577527046,0.9446676969528198,
365496,0.01387616153806448,0.004715311340987682,1.0196287631988525,
365506,-0.012957808561623096,0.03109481930732727,1.0198594331741333,
365516,0.023422760888934135,-0.009522482752799988,1.02566659450531,
365526,-0.019374443218111992,0.04188254103064537,1.0061051845550537,
365536,-0.013185186311602592,0.0021504901815205812,0.9808348417282104,
365546,-0.0006866214680485427,0.022567909210920334,0.9873967170715332,
365556,-0.0053160535171628,-0.01607101410627365,1.0090529918670654,
365566,-0.011023379862308502,-0.0021445935126394033,1.0423884391784668,
365576,-0.003381142858415842,-0.013053087517619133,1.0007998943328857,
365586,-0.015051331371068954,-0.014687145128846169,1.0279513597488403,
365596,-0.025755805894732475,0.051367294043302536,0.998957633972168,
365606,-0.007710773032158613,0.08768187463283539,0.9782489538192749,
365616,0.012448807246983051,0.10299687832593918,0.9278587698936462,
365626,0.019121523946523666,-0.0034210896119475365,0.9875288605690002,
365636,-0.01829225942492485,0.029299180954694748,0.9891899228096008,
365646,-0.004853629972785711,0.054722800850868225,0.9664290547370911,
365656,-0.01923707127571106,0.048550043255090714,1.0291199684143066,
365666,-0.008850855752825737,-0.030251359567046165,1.000336766242981,
365676,0.001377372769638896,-0.0033023168798536062,0.986684262752533,
365686,-0.014597950503230095,-0.01629585027694702,0.9874072670936584,
365696,-0.01751987636089325,-0.0031701698899269104,1.0032587051391602,
365706,-0.010897332802414894,0.005920494440943003,0.981322705745697,
365716,0.003257943782955408,-0.0030402452684938908,1.0024878978729248,
365726,-0.006154751870781183,0.04328673705458641,1.0060712099075317,
365736,-0.013542029075324535,0.04912916570901871,0.9739547967910767,
365746,0.008862784132361412,0.07320892065763474,0.9401134252548218,
365756,0.003863459685817361,-0.0037854399997740984,0.9859195351600647,
365766,0.003801534650847316,0.05886398255825043,0.9902387261390686,
365776,0.02108929120004177,0.020580030977725983,0.9771869778633118,
365786,0.0016114938771352172,-0.014978772029280663,0.9983776807785034,
365796,-0.0038266885094344616,-0.028613712638616562,0.9986869692802429,
365806,0.0024808335583657026,-0.015795137733221054,1.0017130374908447,
365816,0.010791857726871967,-0.008078410290181637,1.0014455318450928,
365826,-0.009020758792757988,-0.02558409981429577,1.0070422887802124,
365836,-0.0019831585232168436,0.0390796922147274,0.9578818678855896,
365846,0.007851120084524155,0.005255554802715778,1.0162922143936157,
365856,-0.012162335216999054,0.020822197198867798,1.0067474842071533,
365866,-0.01515909843146801,0.02912124991416931,0.954990029335022,
365876,0.020990580320358276,0.06679157167673111,0.9372943639755249,
365886,0.01298469677567482,-0.013551343232393265,1.0182501077651978,
365896,-0.021044054999947548,0.052256759256124496,0.9972018003463745,
365906,-0.0034503380302339792,0.03094477765262127,0.9967953562736511,
365916,0.003792531555518508,0.0012011239305138588,0.9771538972854614,
365926,-0.006040853913873434,-0.02491934411227703,1.0102704763412476,
365936,-0.012437847442924976,-0.012636072002351284,1.0226953029632568,
365946,0.004028515890240669,0.008009491488337517,0.9862608909606934,
365956,0.0033506029285490513,-0.02273409254848957,1.0159943103790283,
365966,-0.009595152921974659,0.03054502047598362,1.0190361738204956,
365976,-0.03060048073530197,-0.008024993352591991,0.9884953498840332,
365986,0.005844600033015013,0.03913041204214096,0.9609060883522034,
365996,0.030295904725790024,0.05132368952035904,0.9968922734260559,
366006,-0.01819736696779728,0.04087016358971596,1.0262596607208252,
366016,-0.013319856487214565,-0.02440841868519783,1.0180708169937134,
366026,-0.011105523444712162,0.044873710721731186,0.9732040166854858,
366036,0.006266376003623009,0.009980317205190659,1.0029069185256958,
366046,-0.0042754486203193665,0.009974689222872257,1.0102776288986206,
366056,0.0007793525001034141,-0.008343566209077835,1.0398982763290405,
366066,-0.006009987089782953,-0.000908815476577729,1.0359619855880737,
366076,-0.005760096944868565,-0.012053754180669785,0.985629141330719,
366086,0.014367947354912758,0.029903149232268333,0.9725282192230225,
366096,-0.019272807985544205,-0.006290473509579897,1.0379712581634521,
366106,-0.05344419181346893,-0.011185181327164173,1.0408862829208374,
366116,-0.017583772540092468,-0.006543912459164858,0.9741083383560181,
366126,0.014864054508507252,0.11330766975879669,0.9633885025978088,
366136,0.04154544323682785,-0.007039415184408426,1.0863158702850342,
366146,-0.02806331031024456,-0.022165736183524132,1.0628437995910645,
366156,0.01640406809747219,-0.01868397369980812,1.0019733905792236,
366166,0.006840576883405447,0.04995054379105568,0.9927312135696411,
366176,0.004644881933927536,0.013093756511807442,1.0122967958450317,
366186,0.008455111645162106,0.03730212152004242,1.008687138557434,
366196,0.0017615918768569827,0.020737839862704277,0.9723615646362305,
366206,0.001833518035709858,-0.0002090924681397155,1.0057659149169922,
366216,-0.0050577931106090546,0.0012359668035060167,0.9942766427993774,
366226,-0.007262915372848511,-0.003197020385414362,0.9936872720718384,
366236,0.005458667408674955,0.014190884307026863,1.0084035396575928,
366246,-0.006006426643580198,-0.010244213044643402,1.0231542587280273,
366256,0.006878768093883991,0.08809197694063187,0.9588053226470947,
366266,0.0212896429002285,0.0010897750034928322,1.014567255973816,
366276,-0.018395474180579185,-0.02899288944900036,1.0166211128234863,
366286,0.027435531839728355,-0.03140569105744362,0.9924283623695374,
366296,0.0079061109572649,0.03772592544555664,0.992690920829773,
366306,-0.009801394306123257,0.07458189129829407,0.9788883924484253,
366316,0.023008013144135475,0.019250012934207916,0.9912445545196533,
366326,0.000384837097954005,0.009504366666078568,0.9904890060424805,
366336,-0.004893110133707523,0.009510895237326622,1.0000330209732056,
366346,-0.0017133018700405955,0.002816112246364355,0.9715288281440735,
366356,-0.006189746782183647,-0.003289480460807681,0.9774284958839417,
366366,-0.000651840993668884,-0.005861214362084866,0.9778553247451782,
366376,-0.0030013355426490307,0.00710382079705596,0.9550652503967285,
366386,0.004077675752341747,0.04305737465620041,0.9944696426391602,
366396,-0.002066692104563117,0.05662286654114723,0.9782994389533997,
366406,0.021747751161456108,0.019417550414800644,1.0478333234786987,
366416,-0.000709032581653446,-0.006334161385893822,1.0162590742111206,
366426,0.02676595002412796,-0.03391255810856819,0.9994074702262878,
366436,0.00791454128921032,0.09359368681907654,1.0136849880218506,
366446,-0.006104093044996262,0.014348150230944157,0.9773367047309875,
366456,0.013446326367557049,-0.005110212601721287,0.9688526391983032,
366466,0.00679092388600111,-0.034666188061237335,1.006695032119751,
366476,0.0049339523538947105,-0.014155997894704342,0.9997115135192871,
366486,0.0038700255099684,-0.0009814396034926176,0.9877169728279114,
366496,-0.012694541364908218,-0.04404336214065552,1.0090830326080322,
366506,-0.0061462074518203735,-0.011688318103551865,0.976546585559845,
366516,0.007537069730460644,0.00347127509303391,0.9877318143844604,
366526,-0.011061344295740128,0.025385601446032524,0.9805172681808472,
366536,0.005073091015219688,0.00889917928725481,0.9226799607276917,
366546,0.011502455919981003,0.027623411267995834,0.9588737487792969,
366556,-0.005457899998873472,-0.011967443861067295,0.9948683977127075,
366566,0.012636602856218815,0.09985856711864471,0.9771241545677185,
366576,-0.007499220781028271,0.03474432975053787,1.0047705173492432,
366586,0.004646791145205498,0.02991768717765808,0.9977615475654602,
366596,-0.007930632680654526,-0.023601355031132698,0.9978067278862,
366606,0.02152535505592823,-0.04599062353372574,1.0290111303329468,
366616,-0.0007505864487029612,0.012692797929048538,0.9842458963394165,
366626,-0.00928090326488018,-0.00039658352034166455,0.9682944416999817,
366636,-0.0037160345818847418,0.019208543002605438,1.0102887153625488,
366646,0.0070246318355202675,0.016100170090794563,1.0220972299575806,
366656,0.017441334202885628,-0.03168046474456787,1.0176217555999756,
366666,-0.026858439669013023,0.007997254841029644,1.0504032373428345,
366676,-0.017516914755105972,-0.016513070091605186,0.9843207001686096,
366686,0.0001599434472154826,0.03850756958127022,0.9603242874145508,
366696,0.01896560564637184,0.0355088971555233,1.0165685415267944,
366706,-0.00660580862313509,0.05283588916063309,1.005292534828186,
366716,-0.0008603286696597934,0.03520284220576286,1.0050294399261475,
366726,0.0018349088495597243,0.007279488258063793,1.001001238822937,
366736,0.014684628695249557,-0.023283740505576134,1.053930640220642,
366746,0.001882226555608213,-0.0009198429179377854,1.0133527517318726,
366756,0.0014251603279262781,0.005271290894597769,0.9810858964920044,
366766,-0.00011840154911624268,-0.0005639370647259057,0.9935322403907776,
366776,-0.015087633393704891,0.02576974593102932,0.9673561453819275,
366786,0.030534621328115463,-0.0203541312366724,1.0350958108901978,
366796,-0.0017682038014754653,-0.02538580633699894,1.023003339767456,
366806,-0.008546658791601658,0.012948906049132347,0.989830493927002,
366816,0.016083326190710068,0.07026307284832001,0.9621084332466125,
366826,0.0015340467216446996,0.01690320111811161,1.0198582410812378,
366836,-0.003675657557323575,0.02404257468879223,1.0094025135040283,
366846,0.01861175149679184,-0.008371151983737946,1.045139193534851,
366856,-0.028968891128897667,0.031234242022037506,1.0321393013000488,
366866,-0.01252494752407074,0.02649320475757122,0.9850817918777466,
366876,-0.007371583022177219,0.04518594965338707,0.9784467220306396,
366886,-0.005211164243519306,-0.004817407112568617,1.0081043243408203,
366896,-0.025866501033306122,0.01477086916565895,1.007614016532898,
366906,-0.018091615289449692,-0.0040872241370379925,0.9896162152290344,
366916,0.0038321795873343945,-0.018386555835604668,1.005608081817627,
366926,-0.0178829338401556,-0.009656460024416447,1.0132147073745728,
366936,-0.00485639926046133,0.011901812627911568,0.9659034013748169,
366946,0.004455057438462973,0.07612106204032898,0.9939144253730774,
366956,0.00026835850439965725,0.04182636737823486,1.0639277696609497,
366966,0.008303521201014519,0.03496815264225006,1.0100364685058594,
366976,0.04251507297158241,-0.04741259291768074,1.0414029359817505,
366986,-0.006454905029386282,0.05414197966456413,1.0162938833236694,
366996,-0.008908233605325222,0.03949443995952606,0.9850605130195618,
367006,0.0009308221633546054,0.017937900498509407,0.9705380797386169,
367016,0.0031985468231141567,-0.008116682060062885,0.9868687391281128,
367026,-9.269123256672174e-05,-0.00815981812775135,0.9930087924003601,
367036,-0.02118368074297905,0.002862846478819847,0.9751114249229431,
367046,-0.011174030601978302,-0.005514882504940033,0.9812495708465576,
367056,-0.025417696684598923,0.009534534066915512,1.0104621648788452,
367066,-0.0024362842086702585,0.03617938980460167,0.9740549921989441,
367076,0.021696817129850388,0.05868660286068916,0.9598793983459473,
367086,0.004472613334655762,0.0008129344787448645,1.0377181768417358,
367096,-0.012162704020738602,0.027940252795815468,0.9883973002433777,
367106,0.008329896256327629,-0.008834543637931347,1.0150340795516968,
367116,-0.017377905547618866,0.060156676918268204,1.0079660415649414,
367126,-0.009864010848104954,0.036937929689884186,0.9687210917472839,
367136,0.014716538600623608,0.07224764674901962,0.9368136525154114,
367146,0.01696833036839962,0.005652031395584345,0.9894941449165344,
367156,-0.022214574739336967,0.10600820183753967,0.9908139705657959,
367166,0.0017019098158925772,0.02606295980513096,0.9703162312507629,
367176,0.005189680960029364,0.007462949026376009,1.0110807418823242,
367186,0.023892592638731003,0.02239549718797207,1.034915566444397,
367196,0.004583590663969517,-0.010424686595797539,1.0002797842025757,
367206,0.021330812945961952,0.016910087317228317,0.980634868144989,
367216,0.01259318646043539,0.010931900702416897,1.0060588121414185,
367226,-0.018191082403063774,0.0024445056915283203,1.0308223962783813,
367236,-0.0074146525003015995,0.011253121308982372,0.9740465879440308,
367246,0.007242060266435146,0.008032240904867649,0.9895533323287964,
367256,0.019514460116624832,0.05289032310247421,0.9889208674430847,
367266,-0.010748949833214283,0.03222617506980896,1.0111241340637207,
367276,-0.0001000835036393255,0.018340718001127243,0.9915704131126404,
367286,0.002274906262755394,-0.026554908603429794,1.0378165245056152,
367296,0.019301852211356163,0.027406955137848854,0.9973533749580383,
367306,-0.0022050649859011173,0.012739324010908604,1.0262759923934937,
367316,-0.0032615140080451965,0.014255217276513577,1.0138965845108032,
367326,-0.010490878485143185,-0.012021837756037712,1.0179628133773804,
367336,0.018689872696995735,0.053469352424144745,1.0032762289047241,
367346,0.021754398941993713,0.038141991943120956,0.9872339367866516,
367356,-0.005234321113675833,0.046008769422769547,1.001713752746582,
367366,-0.004882398992776871,0.018428418785333633,1.0187311172485352,
367376,0.00225423788651824,0.029672833159565926,1.0568066835403442,
367386,-0.013621548190712929,0.039945088326931,1.0295660495758057,
367396,-0.010310723446309566,0.07166042178869247,0.9576737880706787,
367406,0.010503637604415417,0.021037649363279343,0.994883120059967,
367416,0.020371584221720695,-0.023683777078986168,1.0856722593307495,
367426,0.012361976318061352,0.0946698933839798,1.039728045463562,
367436,-0.018795497715473175,0.010121410712599754,1.0557560920715332,
367446,-0.0030436902306973934,-0.011946998536586761,1.0403802394866943,
367456,-0.002100567100569606,-0.004783052019774914,1.052169919013977,
367466,0.012482103891670704,0.11066901683807373,0.9976504445075989,
367476,0.005864834412932396,0.040300026535987854,1.0345436334609985,
367486,-0.0028222440741956234,-0.0194059070199728,1.100914478302002,
367496,-0.016831327229738235,0.012135167606174946,1.063686728477478,
367506,-0.0018783753039315343,0.10420618951320648,1.0330137014389038,
367516,-0.013957256451249123,0.06509263068437576,1.0356310606002808,
367526,0.03201812878251076,-0.012277322821319103,1.0491280555725098,
367536,-0.0050557563081383705,0.002468812745064497,1.0520919561386108,
367546,0.014628304168581963,0.07482654601335526,1.0569417476654053,
367556,-0.003974584396928549,0.06949211657047272,1.0259703397750854,
367566,0.011362181976437569,0.018686149269342422,1.0176763534545898,
367576,-0.0016588990110903978,0.009836199693381786,1.010879397392273,
367586,0.010472011752426624,0.022509733214974403,1.0212408304214478,
367596,-0.0006380045088008046,0.06094588339328766,0.9942896962165833,
367606,0.004380917642265558,0.025007572025060654,1.0165125131607056,
367616,-0.0016025860095396638,-0.01516369916498661,1.027958631515503,
367626,-0.005006457678973675,-0.01435781642794609,0.9783410429954529,
367636,-0.001756893820129335,0.0932328999042511,0.960178792476654,
367646,0.006047987844794989,-0.006961367558687925,0.9649911522865295,
367656,-0.0217857975512743,0.006153862923383713,0.9679115414619446,
367666,0.002525963820517063,0.03348907083272934,0.9733539819717407,
367676,-0.002615761011838913,0.0780668556690216,0.990536630153656,
367686,0.019137615337967873,0.062097299844026566,0.9931817650794983,
367696,-0.022981557995080948,0.019546551629900932,0.987760603427887,
367706,0.010199571028351784,-0.01088017225265503,0.9919765591621399,
367716,0.0004654867807403207,0.026487106457352638,0.9853274822235107,
367726,0.007806720677763224,-0.02788187749683857,0.9754524230957031,
367736,-0.0009723932598717511,0.0007460253546014428,0.9702188372612,
367746,0.0009203053778037429,0.010416818782687187,0.9656590223312378,
367756,0.012118155136704445,0.011727380566298962,0.990501344203949,
367766,0.008898718282580376,0.017298603430390358,0.974955141544342,
367776,0.0014018806396052241,0.010546387173235416,0.9814572930335999,
367786,-0.01009333599358797,0.00136805500369519,0.9926068186759949,
367796,-0.003908958286046982,0.044665299355983734,0.9894759058952332,
367806,-0.011109628714621067,0.020139630883932114,0.9979033470153809,
367816,0.01634865440428257,0.009585886262357235,0.9651416540145874,
367826,0.0021694523748010397,0.0032671112567186356,0.9803441166877747,
367836,0.010968025773763657,-0.019970014691352844,0.9931913018226624,
367846,0.00047763477778062224,0.01436635572463274,0.9801695346832275,
367856,-0.0002177130081690848,0.009908081963658333,0.976129949092865,
367866,0.009771276265382767,0.03185509145259857,0.9805887937545776,
367876,-0.00019203957344871014,0.014270761981606483,0.9745093584060669,
367886,-0.02214421145617962,0.02465885505080223,1.0050122737884521,
367896,0.0027775897178798914,0.011343281716108322,0.9787631034851074,
367906,-0.0073484438471496105,0.0017548269825056195,0.9968122243881226,
367916,0.0010491987923160195,-0.004432219080626965,0.9858578443527222,
367926,-0.008790078572928905,0.0023928575683385134,0.9656953811645508,
367936,-0.014928563497960567,0.018075358122587204,1.0027124881744385,
367946,-0.0033431316260248423,0.0026459689252078533,0.9900197982788086,
367956,-0.0374445877969265,-0.020133621990680695,0.9989367723464966,
367966,-0.012133834883570671,0.036309126764535904,0.9856857657432556,
367976,-0.006620611995458603,0.043039217591285706,0.9853448271751404,
367986,0.016802633181214333,0.03466078266501427,0.9977313876152039,
367996,0.010503064841032028,-0.005831281188875437,0.9979483485221863,
368006,0.0076677012257277966,-0.030760228633880615,1.032789707183838,
368016,0.004164228681474924,0.02365836501121521,0.9926539063453674,
368026,-0.0006216824403963983,-0.00014307931996881962,0.9916497468948364,
368036,0.007769583724439144,0.015837134793400764,0.9774240851402283,
368046,-0.022963127121329308,-0.004492711741477251,0.9916802048683167,
368056,-0.021014565601944923,0.03053337149322033,1.0097897052764893,
368066,0.01372399553656578,0.031597498804330826,0.9597706198692322,
368076,-0.029545772820711136,-0.006940164137631655,1.0347681045532227,
368086,-0.016411233693361282,0.0028387033380568027,1.0016810894012451,
368096,-0.003191915340721607,0.022558417171239853,0.9672062993049622,
368106,0.016146410256624222,0.0515286885201931,0.9977280497550964,
368116,-0.0016377390129491687,0.03473622724413872,0.9791642427444458,
368126,-0.009156113490462303,-0.00828159973025322,0.9726622700691223,
368136,0.009903275407850742,0.02490626461803913,0.9974971413612366,
368146,-0.004357770550996065,-0.0013652959605678916,1.0121631622314453,
368156,-0.03038042224943638,0.032229822129011154,1.0158110857009888,
368166,-0.016809985041618347,-0.0007915508467704058,0.9971916079521179,
368176,0.00460161454975605,0.052682507783174515,0.9844092130661011,
368186,0.014556942507624626,0.04861219972372055,1.0229957103729248,
368196,-0.04763568937778473,8.609884389443323e-05,1.0344754457473755,
368206,0.0008612169185653329,-0.01583629846572876,1.006909728050232,
368216,0.011890308931469917,0.0888267382979393,0.9858829975128174,
368226,0.024310005828738213,0.07135935127735138,1.0681644678115845,
368236,-0.01617465354502201,-0.004299641121178865,1.1036783456802368,
368246,0.0059929536655545235,-0.0299748033285141,1.0462169647216797,
368256,-0.006135032512247562,0.12421431392431259,0.9586843848228455,
368266,0.01137417834252119,0.06924331188201904,1.0099599361419678,
368276,0.008292623795568943,-0.015548167750239372,1.0578020811080933,
368286,-0.0007276677060872316,-0.0149012990295887,1.0350534915924072,
368296,-0.006840973161160946,0.04345691576600075,1.0065586566925049,
368306,-0.019693203270435333,0.023908164352178574,1.0189388990402222,
368316,0.010826246812939644,-0.0175345279276371,1.0504425764083862,
368326,-0.0008015189087018371,0.02561345137655735,1.029268741607666,
368336,-0.005380535498261452,-0.009223309345543385,0.9793161153793335,
368346,0.0005778303020633757,-0.0028677117079496384,0.9697095155715942,
368356,-0.016145264729857445,-0.012748350389301777,0.9949541687965393,
368366,-0.008191443979740143,0.021164780482649803,1.0318208932876587,
368376,-0.002187946578487754,0.011347687803208828,1.0066248178482056,
368386,0.029160069301724434,0.031149042770266533,0.970837414264679,
368396,0.023950044065713882,0.011614191345870495,0.9951402544975281,
368406,0.0020958171226084232,0.009297618642449379,1.0136445760726929,
368416,0.0038589555770158768,0.010001370683312416,1.0160363912582397,
368426,-0.050659988075494766,-0.0059891133569180965,1.0063953399658203,
368436,-0.015344643034040928,0.006420488003641367,0.97593092918396,
368446,0.0053476751782000065,0.03537103161215782,0.9659410715103149,
368456,0.007561885751783848,0.04872894287109375,1.0216821432113647,
368466,-0.006504592020064592,-0.031253259629011154,1.0999953746795654,
368476,-0.014366310089826584,0.023043593391776085,1.0517746210098267,
368486,0.005732580088078976,0.0793737918138504,1.032138466835022,
368496,-0.026261314749717712,0.04354037716984749,1.041132926940918,
368506,0.020227916538715363,-0.021611180156469345,1.0292049646377563,
368516,-0.014664651826024055,0.036174505949020386,0.9862120747566223,
368526,-0.003981932066380978,0.05256875976920128,0.9816853404045105,
368536,-0.005105915013700724,0.03139981999993324,0.9906138777732849,
368546,0.00967639684677124,-0.012624597176909447,1.06373131275177,
368556,-0.0004639969556592405,0.0033345192205160856,1.0575048923492432,
368566,-0.012346003204584122,0.0011736900778487325,1.0202200412750244,
368576,0.019914012402296066,0.06506137549877167,0.9583415985107422,
368586,0.004861605353653431,0.010980014689266682,0.9454059600830078,
368596,0.007531800307333469,0.013801200315356255,0.9863444566726685,
368606,-0.011268517933785915,-0.014511008746922016,1.0159060955047607,
368616,-0.0043108961544930935,0.02697969228029251,1.0499017238616943,
368626,-0.01532678958028555,0.005939012859016657,1.002893090248108,
368636,0.0009063954348675907,0.02026154100894928,1.0044673681259155,
368646,0.00913199782371521,0.046072740107774734,0.9460580945014954,
368656,-0.026953598484396935,0.012765315361320972,0.9418783783912659,
368666,-0.013797161169350147,0.05110110342502594,0.9683817625045776,
368676,0.01922566071152687,0.014957425184547901,1.03394615650177,
368686,-0.029202649369835854,0.004072201903909445,1.0562565326690674,
368696,0.008855407126247883,-0.024530895054340363,0.991637110710144,
368706,-0.017142552882432938,0.03929527476429939,1.0039212703704834,
368716,-0.01330606359988451,0.04396509379148483,0.9977019429206848,
368726,-0.021250877529382706,-0.0007570008165203035,1.0239248275756836,
368736,-0.0034527364186942577,0.00844591110944748,0.9925022125244141,
368746,-0.00435382267460227,0.01925586350262165,0.9666425585746765,
368756,0.01212337613105774,0.05008289963006973,0.9963767528533936,
368766,0.015409190207719803,0.032038211822509766,1.0227819681167603,
368776,0.0021190368570387363,-0.04526960477232933,1.0434025526046753,
368786,-0.009585787542164326,0.04261140525341034,1.0337392091751099,
368796,-0.01801448129117489,0.012833749875426292,1.0071170330047607,
368806,-0.0019473914289847016,-0.03415359929203987,1.0172873735427856,
368816,0.014986822381615639,0.042351134121418,0.9827081561088562,
368826,0.009010343812406063,0.043342240154743195,0.9612308144569397,
368836,0.004540333524346352,0.06660537421703339,0.9516111612319946,
368846,0.012459232471883297,0.02921880967915058,0.9984838962554932,
368856,-0.01984260417521,0.08775831013917923,1.0011544227600098,
368866,-0.010089579969644547,-0.03741594776511192,0.9616148471832275,
368876,-0.03114044852554798,-0.03871509060263634,1.01835298538208,
368886,-0.01549561321735382,0.029637480154633522,0.9863089919090271,
368896,-0.010666764341294765,0.02276521548628807,1.0079916715621948,
368906,0.01971634291112423,0.017890414223074913,0.9980219602584839,
368916,-0.0008746203384362161,0.017334619536995888,0.9698739647865295,
368926,-0.012350446544587612,0.0008893058984540403,1.0196490287780762,
368936,-0.012062042020261288,0.016346028074622154,1.0065677165985107,
368946,-0.006916716229170561,-0.004423514008522034,0.9937953948974609,
368956,0.0005898892413824797,-0.002175236353650689,0.9623069763183594,
368966,-0.005486160982400179,0.003336540423333645,0.9565668702125549,
368976,-0.014350947923958302,-0.004962528124451637,0.998290479183197,
368986,-0.00888071209192276,0.018408330157399178,1.027339220046997,
368996,0.0027458793483674526,0.027464888989925385,0.9776769876480103,
369006,0.004019897896796465,0.028512416407465935,0.9723218679428101,
369016,-5.2659444918390363e-05,0.0003996270534116775,0.9933458566665649,
369026,0.0011895042844116688,0.07982507348060608,0.9942788481712341,
369036,-0.0019767582416534424,0.04773757979273796,1.0411986112594604,
369046,-0.013460880145430565,0.007619437295943499,1.0196462869644165,
369056,0.022214697673916817,-0.011661030352115631,1.0146722793579102,
369066,0.0092332037165761,0.09336454421281815,0.9708423614501953,
369076,0.011516114696860313,0.03343021497130394,0.9962908029556274,
369086,-0.0019549771677702665,0.010670792311429977,0.9641498327255249,
369096,-0.00995615404099226,0.0025389636866748333,0.97670978307724,
369106,-0.011556647717952728,0.03602089360356331,0.9835574626922607,
369116,-0.0048771328292787075,-0.010367022827267647,0.963292121887207,
369126,-0.01304573193192482,0.0110109718516469,0.9895472526550293,
369136,-0.005465060006827116,0.020531127229332924,1.0062204599380493,
369146,-0.012879796326160431,0.009811881929636002,1.0320549011230469,
369156,0.0032426787074655294,0.0328943096101284,0.9653778076171875,
369166,0.0004241214192006737,0.011874044314026833,0.9366010427474976,
369176,-0.004583433270454407,-0.006325962487608194,1.0082824230194092,
369186,-0.004822647664695978,0.04031209647655487,1.0133285522460938,
369196,-0.011871500872075558,0.0007935090106911957,1.006361484527588,
369206,-0.0059461165219545364,0.017393210902810097,0.9823662042617798,
369216,0.008780940435826778,-0.02419101633131504,0.9893832206726074,
369226,-0.0063599045388400555,0.027397623285651207,1.031023621559143,
369236,-0.015529624186456203,0.0299777053296566,0.993497371673584,
369246,-0.010110737755894661,0.07668478786945343,0.9662302136421204,
369256,0.032717812806367874,0.044977664947509766,0.9520297050476074,
369266,-0.020024217665195465,0.02975689433515072,1.0171622037887573,
369276,-0.0064796749502420425,-0.006252814084291458,1.0014970302581787,
369286,-0.014726162888109684,0.03460106998682022,0.979631781578064,
369296,-0.004155928734689951,0.026048993691802025,1.0077989101409912,
369306,0.004181216470897198,0.041328541934490204,0.9729178547859192,
369316,0.0030219899490475655,0.013882256112992764,0.9984952807426453,
369326,0.00503121130168438,0.02669437602162361,0.9950527548789978,
369336,-0.006949924398213625,-0.007234259508550167,1.0358083248138428,
369346,-0.015995655208826065,0.019256239756941795,1.0407065153121948,
369356,-0.003955105319619179,0.015425371937453747,1.0118545293807983,
369366,0.0019977425690740347,-0.000845217437017709,0.9870465397834778,
369376,-0.0015571777475997806,0.014626963064074516,0.9990799427032471,
369386,0.006476656533777714,0.039296362549066544,1.0157480239868164,
369396,-0.01005619764328003,0.021671276539564133,1.0334550142288208,
369406,0.006516528315842152,0.0012181751662865281,0.9945690631866455,
369416,-0.0415923073887825,-0.0025131169240921736,0.9786100387573242,
369426,-0.012006624601781368,0.031320784240961075,0.998184084892273,
369436,-0.005385587923228741,0.020946847274899483,1.0535461902618408,
369446,-0.001592883956618607,0.00925249233841896,1.079209804534912,
369456,-0.014556176960468292,0.015502207912504673,1.0315216779708862,
369466,-0.01913730427622795,0.027347812429070473,1.0167649984359741,
369476,0.008685975335538387,0.051396675407886505,0.9960625767707825,
369486,0.004898272920399904,-0.012154022231698036,1.0049468278884888,
369496,0.005521972198039293,0.0233621709048748,1.0430043935775757,
369506,-0.011504524387419224,0.05579046532511711,1.0491842031478882,
369516,-0.02034076862037182,0.004811748396605253,1.0446182489395142,
369526,-0.004791180603206158,0.02508021518588066,0.9535883069038391,
369536,0.003738833824172616,0.050738174468278885,0.9681634306907654,
369546,0.012067294679582119,0.07213908433914185,0.9631231427192688,
369556,0.005256734788417816,-0.02298261597752571,1.023747444152832,
369566,-0.011757017113268375,0.007821640931069851,1.0404109954833984,
369576,-0.02112504467368126,0.043864522129297256,0.9622541666030884,
369586,-0.022739294916391373,0.01860363781452179,0.9392544627189636,
369596,0.017297033220529556,0.08118292689323425,0.9520713090896606,
369606,0.008300269953906536,0.07130812853574753,1.0060930252075195,
369616,-0.038738496601581573,0.06178610026836395,1.0576893091201782,
369626,-0.03404158353805542,0.008973137475550175,0.9912633299827576,
369636,-0.019020522013306618,0.0743032768368721,0.9773471355438232,
369646,0.027760645374655724,0.025660481303930283,0.9927381277084351,
369656,-0.03183267265558243,0.020352311432361603,1.0391478538513184,
369666,-0.011381249874830246,0.018590860068798065,1.0165157318115234,
369676,-0.008582716807723045,0.06971967220306396,0.995100200176239,
369686,0.008591069839894772,0.04448036849498749,1.0086513757705688,
369696,-0.006577129475772381,0.03500078618526459,1.0102691650390625,
369706,0.02449694089591503,0.03350285813212395,1.0413366556167603,
369716,-0.008745190687477589,0.027230333536863327,1.0188978910446167,
369726,-0.0025858362205326557,0.039095450192689896,1.0195014476776123,
369736,-0.004423857666552067,0.0259797852486372,1.0121268033981323,
369746,-0.0054625459015369415,0.02551228366792202,1.0036816596984863,
369756,-0.005383210256695747,0.011423389427363873,1.0074323415756226,
369766,-0.0010593103943392634,0.047260504215955734,0.9966510534286499,
369776,-0.02474939450621605,0.017876872792840004,0.9961867332458496,
369786,-0.011619043536484241,0.0013992397580295801,1.0069360733032227,
369796,-0.0023228563368320465,-0.016239337623119354,1.007474422454834,
369806,-0.006350527051836252,0.011836877092719078,1.003603458404541,
369816,0.002680352656170726,0.021090121939778328,0.9645200371742249,
369826,-0.017825337126851082,0.018898503854870796,1.0091187953948975,
369836,-0.005763736087828875,0.03651227429509163,0.9620864391326904,
369846,0.008652474731206894,0.020223695784807205,0.9734726548194885,
369856,-0.001983783906325698,0.0017240922898054123,1.01288902759552,
369866,-0.011689377948641777,0.00010121700324816629,0.9777844548225403,
369876,-0.007938769645988941,0.029451340436935425,0.978726327419281,
369886,-0.003149751340970397,0.016581295058131218,1.0116660594940186,
369896,-0.028911298140883446,-0.0106413708999753,0.9773653149604797,
369906,-0.01696179062128067,0.027159053832292557,0.9858388900756836,
369916,-0.017119795083999634,0.032862987369298935,1.0039247274398804,
369926,-0.0009350573527626693,0.049416810274124146,0.9949643015861511,
369936,-0.0006723155383951962,0.04877626895904541,0.9835617542266846,
369946,-0.012656856328248978,-0.017073435708880424,0.9856520295143127,
369956,0.004103364422917366,0.045892223715782166,0.9809732437133789,
369966,-0.007386830635368824,0.054594215005636215,0.9899879097938538,
369976,-0.0022522076033055782,0.064113549888134,0.9598233699798584,
369986,-0.014363369904458523,-0.005650457460433245,1.0016740560531616,
369996,-0.0348624624311924,0.006777881644666195,0.9977442622184753,
370006,-0.012272016145288944,0.05190971493721008,0.9649929404258728,
370016,-0.008155456744134426,0.06288137286901474,1.0209933519363403,
370026,-0.00947567354887724,0.10391973704099655,0.9693137407302856,
370036,0.012024015188217163,0.05167798697948456,0.9943573474884033,
370046,-0.007629253435879946,0.04821069911122322,1.0022430419921875,
370056,0.01695476472377777,0.014155884273350239,1.0007421970367432,
370066,-0.02549404837191105,0.04948822036385536,1.0137439966201782,
370076,-0.0029717450961470604,0.02440435253083706,0.9837779402732849,
370086,-0.014615140855312347,0.027127444744110107,0.9955098032951355,
370096,-0.00996553897857666,-0.0029158678371459246,0.9943150281906128,
370106,-0.018170077353715897,0.0018880179850384593,1.0072615146636963,
370116,-0.011280447244644165,0.00781659409403801,0.9891865253448486,
370126,-0.008573667146265507,0.014025403186678886,1.0241281986236572,
370136,-0.0021352593321353197,0.030744103714823723,0.9704714417457581,
370146,-0.0008701122715137899,0.019584601745009422,0.9985471963882446,
370156,-0.002274147467687726,0.0047532967291772366,1.0033063888549805,
370166,-0.0038438127376139164,0.015562728978693485,0.9949055314064026,
370176,-0.003608301980420947,0.005194586701691151,0.9972846508026123,
370186,-0.009186511859297752,1.3680779375135899e-05,1.0078673362731934,
370196,0.007408722769469023,0.03630020096898079,0.9425392150878906,
370206,-0.008725746534764767,-0.007706039119511843,0.998981237411499,
370216,-0.01253956463187933,0.01399365533143282,1.010202407836914,
370226,-0.0037795123644173145,0.03501023352146149,0.9895859956741333,
370236,-0.0028435580898076296,0.021846259012818336,1.0250530242919922,
370246,-0.00908215157687664,0.007483297493308783,1.0111916065216064,
370256,0.005576176568865776,0.03685208782553673,0.9950975775718689,
370266,-0.004409652203321457,-0.02448958531022072,1.055565595626831,
370276,-0.017049379646778107,-0.003575309179723263,1.031856894493103,
370286,0.008134878240525723,0.016522089019417763,1.002212405204773,
370296,-0.004958515986800194,0.039876777678728104,1.0169756412506104,
370306,-0.014723650179803371,0.06894665956497192,0.9763715267181396,
370316,0.013834657147526741,0.08209867030382156,0.9754102826118469,
370326,-0.00805036723613739,0.02820456586778164,1.025191068649292,
370336,0.014186396263539791,0.04566466808319092,1.013196349143982,
370346,0.0006230009021237493,0.013722395524382591,1.0364007949829102,
370356,-0.022169295698404312,0.07535722851753235,1.0123075246810913,
370366,-0.018015293404459953,0.09281447529792786,0.9813584685325623,
370376,0.007601962424814701,0.010800090618431568,0.986958920955658,
370386,-0.02926742658019066,0.01262526586651802,1.0234575271606445,
370396,-0.014943553134799004,0.009094998240470886,1.0105257034301758,
370406,-0.019302871078252792,0.0096273273229599,1.0040619373321533,
370416,-0.012114048935472965,0.050958771258592606,1.0111937522888184,
370426,-0.01279536634683609,0.03980318456888199,1.0032724142074585,
370436,0.001066218363121152,0.00563375698402524,0.9726114273071289,
370446,-0.016618141904473305,0.01356799341738224,1.048384428024292,
370456,0.02891211025416851,0.01853056065738201,1.0096367597579956,
370466,-0.020001931115984917,-0.00010867942910408601,0.984610915184021,
370476,-0.014162912964820862,0.012939578853547573,1.0129809379577637,
370486,-0.013037627562880516,0.031938932836055756,1.0178205966949463,
370496,0.020831769332289696,0.039413128048181534,0.9732673168182373,
370506,-0.026186203584074974,0.0097202705219388,1.063668966293335,
370516,-0.0032307596411556005,0.03417804464697838,0.9951707124710083,
370526,-0.0020142022985965014,-0.004446176812052727,0.9938095808029175,
370536,-0.01765190251171589,-0.01860213279724121,1.0448739528656006,
370546,-0.017236486077308655,0.028952237218618393,1.0226866006851196,
370556,0.00258110323920846,0.10117656737565994,0.9838536977767944,
370566,0.0057067228481173515,0.04036484286189079,1.035942554473877,
370576,-0.010614979080855846,0.020240452140569687,1.0432608127593994,
370586,0.01471369992941618,0.01826336421072483,1.0130767822265625,
370596,-0.0010136873461306095,0.014703403227031231,1.0444071292877197,
370606,-0.0202206801623106,0.018191447481513023,1.0296114683151245,
370616,-0.029911702498793602,0.07041040062904358,0.9476929306983948,
370626,0.004821166396141052,0.0562107190489769,0.965822160243988,
370636,-0.021490640938282013,0.015453269705176353,1.0124132633209229,
370646,-0.021297883242368698,0.07892275601625443,1.006135106086731,
370656,-0.0019848363008350134,0.023979809135198593,1.0059154033660889,
370666,0.0022452911362051964,-0.003778774756938219,1.010544776916504,
370676,-0.022974055260419846,-0.016469556838274002,1.030305027961731,
370686,-0.011188721284270287,0.003885685233399272,0.997105598449707,
370696,-0.004088896326720715,0.047442734241485596,0.9778844714164734,
370706,-0.010913092643022537,0.02231968566775322,1.0117233991622925,
370716,0.01627885363996029,0.037516042590141296,0.958916425704956,
370726,0.014278688468039036,0.000935564108658582,1.0107451677322388,
370736,-0.005866541527211666,0.021624421700835228,1.017079472541809,
370746,-0.011829156428575516,0.004649029113352299,0.9696056842803955,
370756,-0.01213325746357441,0.00831019226461649,0.9797117114067078,
370766,-0.0006247261189855635,0.0020360362250357866,0.9836971759796143,
370776,-0.015006986446678638,0.013605793938040733,0.9794121384620667,
370786,-0.01036157924681902,0.012542341835796833,0.9947914481163025,
370796,-0.00993004534393549,0.01462121307849884,0.9913384318351746,
370806,0.006160518154501915,0.037153977900743484,0.9867624044418335,
370816,-0.004278598818928003,0.023347150534391403,0.999202311038971,
370826,-0.0019969979766756296,0.0022030239924788475,0.9830083847045898,
370836,-0.015521971508860588,-0.004880329594016075,1.0023914575576782,
370846,-0.001128185074776411,0.039499688893556595,0.9624715447425842,
370856,0.021028095856308937,-0.006756448186933994,0.9863295555114746,
370866,-0.027952104806900024,0.0003551530826371163,1.0187978744506836,
370876,-0.012355679646134377,0.008653229102492332,0.961838960647583,
370886,-0.00354569498449564,0.04498487710952759,0.9739141464233398,
370896,-0.030019717290997505,0.03302359580993652,0.9807732701301575,
370906,-0.008862747810781002,0.08333045989274979,0.9079038500785828,
370916,-0.012885748408734798,0.009201304987072945,0.9784918427467346,
370926,-0.009310629218816757,0.15894947946071625,0.9361059665679932,
370936,0.013510618358850479,0.08383425325155258,0.9914823174476624,
370946,-0.016561634838581085,0.0035475478507578373,0.9988069534301758,
370956,0.016076616942882538,-0.021560583263635635,1.0008862018585205,
370966,-0.017696548253297806,0.015349711291491985,1.0081645250320435,
370976,-0.021885912865400314,0.060683585703372955,0.967326283454895,
370986,0.010854729451239109,0.024229006841778755,0.9774374961853027,
370996,-0.02307656779885292,0.03250066563487053,1.0016906261444092,
371006,-0.0069089727476239204,0.016380364075303078,0.9896402955055237,
371016,-0.012204253114759922,0.01152635645121336,0.9795910120010376,
371026,0.004575906787067652,0.008388012647628784,0.9943414926528931,
371036,-0.02356770634651184,-0.0009149319375865161,1.019098162651062,
371046,-0.006739417091012001,-0.004058795981109142,0.9833422303199768,
371056,-0.00021486383047886193,0.012199767865240574,0.9716399312019348,
371066,-0.013496629893779755,-0.005244766362011433,1.0178791284561157,
371076,-0.00821296963840723,0.025748444721102715,0.9712406396865845,
371086,0.004444380756467581,0.023809880018234253,0.9873864054679871,
371096,0.001974096754565835,0.018345709890127182,1.0088834762573242,
371106,-0.009196783415973186,-0.013696003705263138,1.0081734657287598,
371116,0.002720362739637494,0.017021559178829193,0.9552826285362244,
371126,-0.0005964469164609909,-0.0022034619469195604,1.0193650722503662,
371136,-0.035900771617889404,-0.007338561117649078,1.0175331830978394,
371146,-0.005610662046819925,0.03718161582946777,1.0027925968170166,
371156,0.0036080158315598965,0.07034715265035629,0.9802771806716919,
371166,0.01634623296558857,-0.021231327205896378,1.0547221899032593,
371176,-0.03419476002454758,-0.02595032937824726,1.0406451225280762,
371186,-0.0168321393430233,0.06039769574999809,1.0458307266235352,
371196,-0.0037935010623186827,0.08363286405801773,0.9880988001823425,
371206,0.024752873927354813,0.010274053551256657,1.0338168144226074,
371216,-0.012869617901742458,-0.004337668884545565,1.0453811883926392,
371226,0.00554895494133234,0.04140929505228996,1.0337649583816528,
371236,-0.0013480925699695945,0.05238895118236542,1.0058757066726685,
371246,-0.010115144774317741,0.007823755964636803,1.0279768705368042,
371256,0.0011263123014941812,-0.010428403504192829,1.039233684539795,
371266,-0.0028776938561350107,-0.01093264576047659,0.9961071610450745,
371276,-0.013583678752183914,-0.0008231953834183514,0.980514407157898,
371286,-0.01678079552948475,-0.006145542021840811,0.998765766620636,
371296,-0.01222361158579588,-0.005361651536077261,1.0066488981246948,
371306,-0.010453101247549057,0.004995445255190134,1.0047128200531006,
371316,-0.00272995769046247,0.005320998840034008,0.966010570526123,
371326,-0.009553727693855762,-0.000985893770121038,1.0038222074508667,
371336,-0.00010651240881998092,-0.006951790768653154,1.0088342428207397,
371346,-0.019077938050031662,0.014164065010845661,1.0550146102905273,
371356,0.0011455550557002425,0.013882873579859734,1.025303602218628,
371366,-0.008570794016122818,-0.007277213502675295,1.0096855163574219,
371376,-0.015497364103794098,0.010113803669810295,0.9706499576568604,
371386,0.0025722282007336617,0.07759489119052887,0.9741249084472656,
371396,0.01542504783719778,0.0020107030868530273,1.0595945119857788,
371406,-0.02150375209748745,0.038734156638383865,1.039881706237793,
371416,-0.011894474737346172,0.00201868056319654,1.0156834125518799,
371426,-0.016123637557029724,0.035182032734155655,0.9824445843696594,
371436,0.009574216790497303,0.016097595915198326,0.9986421465873718,
371446,-0.007672232110053301,0.004808155354112387,1.0094163417816162,
371456,-0.005905711092054844,0.02090287394821644,0.9712440967559814,
371466,-0.016316799446940422,0.011061365716159344,1.0018950700759888,
371476,-0.01632906123995781,-0.003599213669076562,1.0449185371398926,
371486,-0.0312974750995636,-0.00924897100776434,0.9791616797447205,
371496,-0.01381709799170494,0.03444923087954521,1.00424325466156,
371506,0.01447870209813118,0.06147874891757965,0.9893359541893005,
371516,0.010659533552825451,-0.007513952907174826,1.0585205554962158,
371526,-0.012469434179365635,-0.016267279163002968,1.000624179840088,
371536,0.00506618432700634,0.08228914439678192,1.0334676504135132,
371546,-0.0063220439478755,0.013971610926091671,1.0958287715911865,
371556,-0.0034972948487848043,-0.022131970152258873,1.0360996723175049,
371566,-0.0008410426671616733,0.06262301653623581,0.9659478664398193,
371576,0.0014680521562695503,0.10435818880796432,0.9573442339897156,
371586,0.009095101617276669,0.006835745647549629,1.0261938571929932,
371596,-0.009382911026477814,0.0015473566018044949,1.0072805881500244,
371606,-0.00780845433473587,-0.016381556168198586,0.990380048751831,
371616,-0.0222532507032156,0.01855156011879444,1.016713261604309,
371626,-0.004288907628506422,-0.005309297237545252,0.9882698655128479,
371636,-0.017144661396741867,0.002552547724917531,0.9773962497711182,
371646,0.0075806910172104836,0.04956524074077606,0.9500278830528259,
371656,0.011913448572158813,0.03825054317712784,0.9889672994613647,
371666,-0.00021304396796040237,-0.029401870444417,1.077721357345581,
371676,-0.02314469963312149,0.01987711526453495,1.0231202840805054,
371686,-0.0211349967867136,0.022536734119057655,0.9967483282089233,
371696,-0.013378848321735859,0.040287360548973083,0.9659042358398438,
371706,0.014883778989315033,-0.015358708798885345,1.0162039995193481,
371716,-0.004787766374647617,0.03866120055317879,1.0026696920394897,
371726,-0.00985640101134777,0.05107775703072548,0.990382730960846,
371736,-0.01437738724052906,0.023654194548726082,1.027485728263855,
371746,-0.011419350281357765,0.020944004878401756,0.9820498824119568,
371756,0.004642315674573183,-0.02244323492050171,0.9699632525444031,
371766,-0.008690815418958664,-0.007538968231528997,0.9978647828102112,
371776,0.0033114540856331587,0.034702103585004807,0.9628603458404541,
371786,0.0030475882813334465,0.01546352170407772,0.9953235983848572,
371796,-0.01805856265127659,0.009213187731802464,1.0518378019332886,
371806,-0.005144601222127676,0.009933089837431908,0.987949788570404,
371816,-0.015231328085064888,0.046807266771793365,0.9820233583450317,
371826,0.013814621604979038,-0.005329858977347612,0.9826785326004028,
371836,0.007174506783485413,-0.011602542363107204,0.9832918047904968,
371846,0.02410695143043995,0.08333317190408707,0.9895963668823242,
371856,0.015255175530910492,-0.010589213110506535,1.0907496213912964,
371866,-0.016117826104164124,-0.008990207687020302,1.0266884565353394,
371876,-3.3311355309706414e-06,0.11329159140586853,0.9708814024925232,
371886,0.011780165135860443,0.05514257028698921,0.9516332149505615,
371896,0.027958840131759644,-0.03368356451392174,0.9964284300804138,
371906,0.00810960028320551,0.05921970680356026,1.0115056037902832,
371916,3.603565346566029e-05,-0.019052406772971153,1.0099353790283203,
371926,-0.006233361084014177,0.0016932435100898147,1.027148962020874,
371936,-0.004169333726167679,0.03963519260287285,0.9972831010818481,
371946,-0.019031459465622902,0.019624968990683556,1.006130337715149,
371956,0.015248293057084084,0.06877590715885162,0.9561954140663147,
371966,0.007111784536391497,0.008666349574923515,0.9591042995452881,
371976,0.004404687788337469,-0.0307182464748621,1.0365086793899536,
371986,0.0018704663962125778,0.07515755295753479,0.9959671497344971,
371996,-0.017639292404055595,-0.009623340331017971,0.9898278713226318,
372006,-0.014185511507093906,0.059467874467372894,0.9995036721229553,
372016,-0.008088236674666405,0.04404444247484207,0.9628108143806458,
372026,-0.025331461802124977,0.026731254532933235,0.9129176139831543,
372036,0.005014668218791485,0.07641277462244034,0.9639562964439392,
372046,0.02943396382033825,0.005285299848765135,1.025281310081482,
372056,-0.01445334404706955,-0.010728384368121624,1.0351942777633667,
372066,-0.02427513897418976,-0.031004613265395164,0.9966679215431213,
372076,-0.016611389815807343,0.07637076079845428,1.015428066253662,
372086,0.004460312891751528,0.040231894701719284,1.0004254579544067,
372096,-0.015376755967736244,-0.02101985737681389,1.0213825702667236,
372106,-0.007609785068780184,-0.008188385516405106,1.000906229019165,
372116,-0.011344165541231632,0.038522787392139435,0.9653441309928894,
372126,0.0032911107409745455,0.036622777581214905,0.9868749976158142,
372136,0.01135289017111063,0.022407392039895058,0.9822594523429871,
372146,0.008320050314068794,0.003815199015662074,1.0287107229232788,
372156,-0.009219256229698658,0.0540316216647625,1.0209734439849854,
372166,0.008009307086467743,0.01709418185055256,1.0180505514144897,
372176,-0.00459571136161685,0.003659697249531746,1.0570989847183228,
372186,-0.022994786500930786,0.052984606474637985,1.0033071041107178,
372196,-0.009784385561943054,0.02842218056321144,1.0038038492202759,
372206,-0.018396830186247826,0.06030569598078728,1.0251481533050537,
372216,-0.010302457958459854,0.006031263619661331,0.9833948612213135,
372226,-0.03740697354078293,0.03636087104678154,0.969326913356781,
372236,-0.005488141439855099,0.021807190030813217,0.98983234167099,
372246,-0.013944709673523903,0.01905251108109951,1.015398621559143,
372256,0.010217024013400078,0.0071138646453619,0.9864553809165955,
372266,-0.0008637493592686951,-0.011996210552752018,0.9905633926391602,
372276,-0.010142930783331394,0.004129888955503702,0.9836046695709229,
372286,-0.00878841057419777,0.01323721930384636,1.0363103151321411,
372296,-0.012771019712090492,-0.029394038021564484,1.0677300691604614,
372306,-0.010181427001953125,0.0002464794961269945,1.050461769104004,
372316,-0.015806667506694794,0.0063301254995167255,1.0359833240509033,
372326,-0.012005374766886234,-0.014079879969358444,1.009376049041748,
372336,-0.007494751829653978,0.043964989483356476,0.9723373651504517,
372346,0.0011500390246510506,0.028590619564056396,0.9397823810577393,
372356,0.00697417464107275,0.03963417932391167,0.9369574189186096,
372366,0.019303400069475174,0.003039158647879958,0.9806133508682251,
372376,0.004311105236411095,0.018820004537701607,0.9989688992500305,
372386,0.003995726350694895,0.035829316824674606,0.9774714708328247,
372396,-0.013339130207896233,0.01575784757733345,1.0048245191574097,
372406,-0.035574305802583694,0.05048943683505058,1.0167025327682495,
372416,-0.029846280813217163,0.00845697894692421,0.977390706539154,
372426,0.005880187731236219,0.04572976380586624,0.9826244711875916,
372436,0.010371989570558071,0.03640096262097359,0.9861501455307007,
372446,0.0029954584315419197,0.012034040875732899,0.9876816868782043,
372456,0.009958338923752308,-0.0008349387207999825,0.9751002192497253,
372466,-0.0019635518547147512,0.012668748386204243,0.9921745657920837,
372476,0.0016533306334167719,0.0026803624350577593,1.0212329626083374,
372486,0.00014181247388478369,0.003427858930081129,1.0078868865966797,
372496,-0.015872489660978317,-0.017844466492533684,1.031788945198059,
372506,-0.006204861681908369,0.007666279096156359,0.9839474558830261,
372516,0.011023926548659801,0.011822870932519436,0.9596583247184753,
372526,0.006754453293979168,-0.018811535090208054,0.9981605410575867,
372536,0.013505939394235611,0.022024638950824738,0.9653580784797668,
372546,0.0041335392743349075,-0.012590310536324978,1.0490444898605347,
372556,-0.00827227346599102,0.007863344624638557,1.0182757377624512,
372566,-0.0021792249754071236,-0.013291189447045326,1.0152537822723389,
372576,-0.029883837327361107,-0.0059502520598471165,0.9951624274253845,
372586,-0.013976463116705418,0.04807831346988678,1.0109376907348633,
372596,0.007514480967074633,0.05802980065345764,0.9601766467094421,
372606,0.030170103535056114,0.017016585916280746,1.0202723741531372,
372616,0.013707603327929974,0.004765964578837156,0.9889058470726013,
372626,0.0018959380686283112,0.05894037336111069,0.9945577383041382,
372636,-0.0017120018601417542,0.01862386241555214,1.0644311904907227,
372646,-0.0066293287090957165,-0.008078735321760178,1.0137113332748413,
372656,-0.0007958923233672976,0.036300987005233765,0.9983670711517334,
372666,0.014002424664795399,0.02321857586503029,0.9783627390861511,
372676,0.0102374954149127,-0.04406187683343887,0.9984957575798035,
372686,0.02200142666697502,0.07625240087509155,1.0020419359207153,
372696,-0.01745215803384781,-0.00917611364275217,1.0130126476287842,
372706,-0.002677471609786153,-0.04617355763912201,1.037514567375183,
372716,-0.0040883286856114864,0.058372024446725845,0.9929516315460205,
372726,-0.005705301649868488,0.045211758464574814,0.9427388906478882,
372736,0.001915846485644579,0.033502690494060516,0.9303084015846252,
372746,0.0037853331305086613,-0.014283552765846252,1.014325737953186,
372756,0.008853277191519737,0.06383340805768967,0.9946454763412476,
372766,-0.018427543342113495,0.025309622287750244,0.963729977607727,
372776,-0.0024717834312468767,0.03413357213139534,0.9941379427909851,
372786,0.010184310376644135,0.054905965924263,0.9696194529533386,
372796,-0.005236550234258175,0.020995622500777245,0.9371193051338196,
372806,0.009578627534210682,0.04914414510130882,0.9559557437896729,
372816,0.01889057084918022,0.05905495956540108,0.9948497414588928,
372826,-0.018174801021814346,0.051856350153684616,1.015092372894287,
372836,-0.01605156809091568,-0.01732088252902031,1.0103404521942139,
372846,-0.01629761792719364,0.05029074102640152,1.0207599401474,
372856,-0.002396607305854559,0.027914313599467278,0.9808969497680664,
372866,-0.00921666156500578,0.04960225522518158,0.9249003529548645,
372876,0.012783692218363285,0.08807104080915451,0.9487292766571045,
372886,0.008594353683292866,0.0860513299703598,0.9857690334320068,
372896,-5.955923916189931e-05,0.06490198522806168,1.0055267810821533,
372906,0.00471785943955183,-0.019890213385224342,1.0469095706939697,
372916,-0.014210349880158901,0.025778966024518013,1.0556076765060425,
372926,-0.005290084984153509,0.038938455283641815,1.0309735536575317,
372936,-0.021252429112792015,0.019161589443683624,0.999447226524353,
372946,-0.0011393815511837602,0.022414378821849823,1.0031102895736694,
372956,0.0020255439449101686,0.08356919139623642,1.0036896467208862,
372966,0.02704344503581524,0.07913931459188461,0.9832243323326111,
372976,0.027254300191998482,-0.03203028440475464,1.0849368572235107,
372986,-0.006909480784088373,0.023464446887373924,1.042190432548523,
372996,0.011755097657442093,0.054753296077251434,1.0438493490219116,
373006,-0.00756046874448657,0.010620782151818275,1.0373830795288086,
373016,0.006831353530287743,-0.019884098321199417,1.0111587047576904,
373026,0.005833142437040806,0.014593496918678284,1.0137404203414917,
373036,0.007417865097522736,0.06330352276563644,1.008113145828247,
373046,0.012244557961821556,-0.008646943606436253,1.0313591957092285,
373056,-0.013847911730408669,-0.003062259638682008,1.0374811887741089,
373066,0.007764589041471481,-0.005644998978823423,1.0350195169448853,
373076,-0.005049490835517645,0.05050790682435036,0.9938212037086487,
373086,0.010615400038659573,0.011017486453056335,0.9908056855201721,
373096,-0.007507550995796919,-0.009233788587152958,1.009741187095642,
373106,0.0049382527358829975,-0.006034476216882467,1.0264948606491089,
373116,-0.009160968475043774,0.05272278934717178,0.9985693693161011,
373126,0.016068171709775925,0.006673356983810663,0.9782049059867859,
373136,-0.008169258944690228,0.002132885390892625,1.0052087306976318,
373146,-0.002789116697385907,0.02120830863714218,0.9828720688819885,
373156,-0.014339289627969265,0.024826662614941597,0.9747923016548157,
373166,0.01645577698945999,0.005908289924263954,0.9691581130027771,
373176,-0.01933378353714943,-0.006952434312552214,0.975226879119873,
373186,-0.005842150188982487,0.054059069603681564,0.9919918179512024,
373196,-0.008467374369502068,0.022738508880138397,0.9931716918945312,
373206,-0.0104627450928092,0.0061534857377409935,1.0009310245513916,
373216,-0.001767462003044784,0.0076681021600961685,0.9836893677711487,
373226,-0.005587571766227484,-0.012897579930722713,1.0090065002441406,
373236,0.008614073507487774,0.0411963127553463,0.9667039513587952,
373246,0.009478393942117691,0.007777367252856493,0.9568062424659729,
373256,-0.010450070723891258,-0.008479107171297073,0.9719554781913757,
373266,-0.0008531807688996196,0.01943606697022915,0.9664233326911926,
373276,-0.004073913674801588,0.014571343548595905,0.9913562536239624,
373286,0.040890976786613464,0.02180398441851139,0.9804282188415527,
373296,0.01119459792971611,0.013221049681305885,0.9832854270935059,
373306,-0.01088772527873516,-0.031474482268095016,1.0172812938690186,
373316,0.002054773271083832,-0.0022872318513691425,0.9788273572921753,
373326,0.002505192067474127,-0.002446579048410058,0.9636730551719666,
373336,-0.00016442211926914752,0.01157133374363184,0.9658459424972534,
373346,-0.0035273286048322916,-0.011328368447721004,0.9599237442016602,
373356,-0.005400808993726969,0.01747269183397293,0.9877686500549316,
373366,0.01578184962272644,0.06161400303244591,0.9729001522064209,
373376,-0.012861920520663261,-0.018296794965863228,0.9753057956695557,
373386,0.011252386495471,-0.0173176396638155,0.9780246615409851,
373396,0.018526455387473106,0.031308066099882126,0.9759452939033508,
373406,-0.023871004581451416,0.03647246211767197,1.0386998653411865,
373416,0.02266581356525421,-0.03230779245495796,0.955947756767273,
373426,-0.011904646642506123,0.010646910406649113,0.9684072136878967,
373436,0.00047408099635504186,0.09752614796161652,1.0127029418945312,
373446,0.0025220070965588093,0.09087017923593521,0.9830338954925537,
373456,0.010311614722013474,0.017126504331827164,0.9821763038635254,
373466,-0.012039801105856895,0.030925922095775604,0.9801161289215088,
373476,-0.003677188418805599,0.025152288377285004,0.9664509892463684,
373486,-0.013439529575407505,0.07533280551433563,1.0005826950073242,
373496,-0.025808505713939667,-0.013436512090265751,0.9976009130477905,
373506,-0.02571796253323555,0.012219445779919624,0.9960222244262695,
373516,-0.01373059581965208,0.032137591391801834,0.9537532925605774,
373526,-0.007040242198854685,0.021485574543476105,0.9757896065711975,
373536,0.012592319399118423,0.021862827241420746,1.0066605806350708,
373546,-0.008254691027104855,-0.00044868217082694173,0.9866245985031128,
373556,-0.0010643771383911371,0.007393582258373499,0.9739935398101807,
373566,-0.005285426042973995,0.02409191243350506,0.9692290425300598,
373576,-0.010678840801119804,0.0008122094441205263,1.0195001363754272,
373586,-0.003138674655929208,0.012779714539647102,1.0300321578979492,
373596,0.0018239830387756228,-0.01955178938806057,0.9786109924316406,
373606,-0.014126582071185112,0.009733816608786583,0.9939610362052917,
373616,-0.0038586014416068792,-0.010455437004566193,1.008894681930542,
373626,-0.015077956020832062,0.0019666969310492277,1.0282151699066162,
373636,-0.006733487360179424,0.014081986621022224,1.0146039724349976,
373646,-0.021867211908102036,0.02287350408732891,0.9947900772094727,
373656,-0.00410559494048357,-0.012319899164140224,1.004529595375061,
373666,-0.012995890341699123,0.044078703969717026,0.9856705665588379,
373676,0.014539032243192196,0.034263916313648224,1.0290414094924927,
373686,-0.01612538844347,0.0005837667849846184,1.0694184303283691,
373696,-0.03238774463534355,0.0004816934233531356,1.038743019104004,
373706,-0.01820395328104496,0.03734692558646202,0.9726526141166687,
373716,0.015860991552472115,0.08365596830844879,0.9967919588088989,
373726,0.00756894052028656,-0.00286385347135365,1.0484135150909424,
373736,-0.02122797816991806,0.02372298389673233,1.0235346555709839,
373746,0.006161969620734453,-0.010331078432500362,1.0137231349945068,
373756,-0.01621074602007866,0.010404686443507671,1.016562819480896,
373766,-0.003418651409447193,-0.014941839501261711,1.0402766466140747,
373776,-0.012875456362962723,0.029747849330306053,1.023876428604126,
373786,-0.011046349070966244,0.005298991221934557,1.0105297565460205,
373796,0.009220867417752743,0.03257821127772331,0.9370847344398499,
373806,-0.0020269732922315598,-0.0007835524156689644,0.9796340465545654,
373816,-0.012640746310353279,0.0082313297316432,0.9962633848190308,
373826,-0.019676417112350464,-0.029462115839123726,1.0547759532928467,
373836,-0.014688733033835888,-0.010018791072070599,1.0295466184616089,
373846,-0.002151313703507185,0.016949787735939026,1.0214133262634277,
373856,-0.00113974092528224,0.027815978974103928,0.9881770014762878,
373866,0.0018290146254003048,0.002749744104221463,1.0106176137924194,
373876,-0.0042812637984752655,-0.032800495624542236,1.029297113418579,
373886,-0.003957205452024937,0.039678651839494705,1.007716417312622,
373896,0.00018331350293010473,0.00826819334179163,1.0516667366027832,
373906,-0.018537839874625206,-0.006997593678534031,1.024448275566101,
373916,0.013889645226299763,-0.0300028957426548,1.013214111328125,
373926,0.0018804195569828153,0.10429374873638153,0.9841200113296509,
373936,0.01922714337706566,0.020694058388471603,1.009277582168579,
373946,-0.006857232190668583,-0.00264479941688478,1.0093638896942139,
373956,0.007208412047475576,-0.032643795013427734,1.0357065200805664,
373966,0.0008193689282052219,0.02845926024019718,1.008479356765747,
373976,-0.008550901897251606,-0.0017930982867255807,1.0162664651870728,
373986,-0.010082988999783993,-0.0007053274312056601,1.0050995349884033,
373996,-0.0005157229024916887,0.019614558666944504,1.0032349824905396,
374006,0.011720752343535423,0.06321819126605988,0.9644513130187988,
374016,0.02055785432457924,0.024052869528532028,0.9749009609222412,
374026,-0.014774427749216557,-0.027747364714741707,0.9830597639083862,
374036,0.0007677785470150411,0.03364447131752968,0.9967672228813171,
374046,0.004102610517293215,-0.001686955918557942,1.0743962526321411,
374056,-0.02744569256901741,-0.0013601533137261868,1.0344678163528442,
374066,0.00010055198799818754,0.05484433099627495,1.0077869892120361,
374076,-0.04743533208966255,0.005074783228337765,1.0397629737854004,
374086,0.0054328590631484985,-0.03112715668976307,1.011479377746582,
374096,-0.014271191321313381,0.07856189459562302,0.9431390166282654,
374106,0.026405513286590576,0.07439612597227097,1.0021759271621704,
374116,0.02042081207036972,-0.027747059240937233,1.046125888824463,
374126,0.017733396962285042,-0.029761893674731255,1.0520637035369873,
374136,0.0036425781436264515,0.0570017471909523,0.9647446274757385,
374146,0.004240293055772781,0.02197609655559063,0.968558132648468,
374156,0.001774710020981729,-0.01631746254861355,1.0706392526626587,
374166,-0.008316251449286938,-0.005672276485711336,1.0371264219284058,
374176,-0.009115496650338173,-0.013358852826058865,1.0352095365524292,
374186,-0.007211808580905199,0.009699941612780094,0.9475085139274597,
374196,3.272311369073577e-05,-0.017972148954868317,0.9821083545684814,
374206,0.008801997639238834,0.10153316706418991,0.9747682809829712,
374216,-0.0009089492377825081,0.025159791111946106,1.0019385814666748,
374226,-0.021297171711921692,0.026106974110007286,0.9808890223503113,
374236,0.030300378799438477,0.09144586324691772,1.0022872686386108,
374246,-0.023124460130929947,-0.02129979617893696,1.0777695178985596,
374256,-0.017722146585583687,0.0005601148004643619,1.0322754383087158,
374266,-0.01585393399000168,0.09221074730157852,0.9712978601455688,
374276,-0.01323182787746191,0.05361618846654892,1.0071767568588257,
374286,0.00811154954135418,-0.01082313247025013,1.0183299779891968,
374296,5.744055306422524e-05,0.006732170004397631,0.9983482956886292,
374306,0.012174493633210659,0.02255835011601448,0.9607186913490295,
374316,0.016808846965432167,-0.0007177040097303689,0.9758332967758179,
374326,-0.012903078459203243,-0.016801318153738976,1.009601354598999,
374336,-0.002714400878176093,0.03018117882311344,1.030624508857727,
374346,-0.006306014955043793,0.010341459885239601,1.0037018060684204,
374356,-0.011288962326943874,-0.014894449152052402,0.9728527665138245,
374366,0.011361469514667988,0.07070484012365341,0.9298630356788635,
374376,0.017543181777000427,0.04333643987774849,0.9590235948562622,
374386,0.018884647637605667,-0.05368712916970253,1.056445598602295,
374396,0.0012794176582247019,0.033153291791677475,1.0063786506652832,
374406,-0.014852439984679222,0.012143639847636223,0.9557768702507019,
374416,-0.000599523598793894,0.03547600284218788,0.9489946365356445,
374426,0.02626938745379448,0.1323874592781067,0.9303762912750244,
374436,-0.029659453779459,0.03212990239262581,1.046230435371399,
374446,-0.01542731188237667,-0.028184108436107635,0.9854545593261719,
374456,-0.03893735259771347,0.034573033452034,0.9497519731521606,
374466,-0.004467449150979519,0.040164098143577576,0.9812451601028442,
374476,0.0080642681568861,0.027488121762871742,0.9393825531005859,
374486,-0.009475171566009521,-0.012418956495821476,0.9701541066169739,
374496,-0.005064769648015499,0.018537120893597603,1.007339596748352,
374506,0.012148243375122547,0.022289900109171867,1.0105247497558594,
374516,-0.021093159914016724,0.0007902192301116884,0.9939197301864624,
374526,0.0036757816560566425,0.02008925750851631,0.9591929912567139,
374536,0.011643130332231522,0.10531464964151382,0.9271534085273743,
374546,-0.0011263242922723293,0.01682795025408268,1.0435515642166138,
374556,-0.011712394654750824,0.031889017671346664,1.0200468301773071,
374566,0.010015315376222134,-0.01905178837478161,0.9381811022758484,
374576,0.00015947053907439113,0.021990301087498665,0.9246046543121338,
374586,0.015663495287299156,0.01287849061191082,0.9776601195335388,
374596,-0.003545460756868124,0.02758028730750084,1.0006459951400757,
374606,0.010042502544820309,0.048743970692157745,0.995396077632904,
374616,-0.01746891811490059,0.01342958677560091,0.9572637677192688,
374626,-0.001807943917810917,-0.013420023024082184,0.9706050157546997,
374636,-0.006292070262134075,0.009641433134675026,0.988754391670227,
374646,0.011389770545065403,0.0030641607008874416,0.945759654045105,
374656,0.0034736262168735266,-0.01649131067097187,0.9512391090393066,
374666,0.0013585109263658524,0.026106661185622215,0.9699490666389465,
374676,-0.014432931318879128,0.030498269945383072,0.9762060046195984,
374686,-0.018229492008686066,0.013175354339182377,0.9483808875083923,
374696,0.015418577939271927,0.07872606813907623,0.9323508739471436,
374706,0.025244370102882385,0.009671874344348907,1.0368733406066895,
374716,-0.021821822971105576,0.002990105887874961,1.0425034761428833,
374726,-0.006473500281572342,0.05096564441919327,0.9245991706848145,
374736,0.026120884343981743,0.08873298764228821,0.9189843535423279,
374746,0.005444070789963007,0.01758332923054695,1.0360928773880005,
374756,-0.013629325665533543,0.0012106604408472776,1.03034245967865,
374766,0.008721701800823212,0.018537454307079315,0.9747871160507202,
374776,-0.002363142091780901,0.1006985753774643,0.9384840726852417,
374786,0.009830831550061703,0.011573657393455505,0.9987176656723022,
374796,-0.006922527216374874,0.005083419848233461,1.0198687314987183,
374806,0.00044443519436754286,-0.01915227249264717,1.0074912309646606,
374816,-0.02636091038584709,0.023383792489767075,1.02927565574646,
374826,0.004664053209125996,0.0027316249907016754,1.0259184837341309,
374836,-0.0034137042239308357,-0.001169661059975624,1.0348708629608154,
374846,0.004501425661146641,0.0030708324629813433,1.0290902853012085,
374856,-0.010567272081971169,-0.0014819959178566933,1.0082589387893677,
374866,-0.012059369124472141,0.009774738922715187,1.0273205041885376,
374876,0.008292130194604397,-0.01879294402897358,1.0085030794143677,
374886,0.00338168628513813,0.0069209858775138855,1.0045247077941895,
374896,0.008866779506206512,0.0005478351376950741,1.0184968709945679,
374906,0.0023433989845216274,0.006840146146714687,0.9984001517295837,
374916,0.01745045930147171,0.02562720701098442,0.9963389039039612,
374926,0.014686989597976208,-0.009661423973739147,1.056054949760437,
374936,0.010932298377156258,-0.004057283513247967,1.0190266370773315,
374946,0.009867909364402294,0.026322826743125916,1.0188441276550293,
374956,0.018680838868021965,0.0587061382830143,0.9982959032058716,
374966,0.0026923823170363903,-0.01156082283705473,1.0258822441101074,
374976,-0.00045043983845971525,0.015246226452291012,1.018944263458252,
374986,0.016677509993314743,0.06840673089027405,1.0254079103469849,
374996,0.04116753861308098,-0.02474379725754261,1.0743002891540527,
375006,0.009847817942500114,0.028035053983330727,1.0196154117584229,
375016,0.02903379686176777,0.05193145573139191,1.0183745622634888,
375026,0.007801266387104988,0.0437345989048481,1.0300465822219849,
375036,0.004706422332674265,0.07093578577041626,1.0018641948699951,
375046,0.018954213708639145,0.023093508556485176,1.0177651643753052,
375056,0.0003987666859757155,0.06162029132246971,1.0221089124679565,
375066,0.014702058397233486,-0.005757340230047703,1.0279364585876465,
375076,-0.005591190420091152,-0.003984226379543543,1.0379008054733276,
375086,-0.0036367655266076326,0.010497747920453548,1.05287766456604,
375096,0.008460063487291336,-0.008477463386952877,1.0632976293563843,
375106,-0.0032414847519248724,0.017616398632526398,1.0164690017700195,
375116,-0.005187653936445713,0.027780525386333466,1.038462519645691,
375126,-0.015249501913785934,0.006662644911557436,1.05545175075531,
375136,-0.025229331105947495,-0.029502280056476593,1.0655529499053955,
375146,-0.0033023946452885866,0.006962226238101721,1.047996163368225,
375156,-0.01970505528151989,0.01298588328063488,1.0732051134109497,
375166,0.019289642572402954,0.023608848452568054,1.02549409866333,
375176,-0.00202998798340559,-0.01727435737848282,1.0138320922851562,
375186,-0.01195258367806673,0.01645667292177677,1.0302780866622925,
375196,0.0007628861931152642,0.019151031970977783,0.9640684723854065,
375206,-0.01924877054989338,0.002655842574313283,0.9754657745361328,
375216,-0.0005992382648400962,0.010939187370240688,0.9773020148277283,
375226,-0.015938743948936462,0.014300339855253696,1.0406434535980225,
375236,-0.0049093905836343765,0.013933206908404827,1.0435019731521606,
375246,0.0008355447789654136,-0.006944809574633837,0.9720960259437561,
375256,0.006639015395194292,0.014950261451303959,0.9769772887229919,
375266,0.009210712276399136,0.03958669677376747,0.9835425615310669,
375276,-0.0043268948793411255,-0.02849430777132511,0.9713335037231445,
375286,0.017178906127810478,0.05322408303618431,0.9650846123695374,
375296,0.03271770477294922,0.09111208468675613,0.9283010363578796,
375306,-0.040855471044778824,0.017477672547101974,1.0201694965362549,
375316,0.013738234527409077,-0.0200806837528944,0.9481984972953796,
375326,-0.010678332298994064,0.09001553803682327,0.9335557222366333,
375336,0.01565929502248764,0.07036365568637848,0.9855756163597107,
375346,0.004810253158211708,0.03907102346420288,0.9269212484359741,
375356,-0.022702565416693687,-0.05739471688866615,0.9331489205360413,
375366,-0.02595454826951027,0.09799930453300476,0.9422898292541504,
375376,-0.011050744913518429,0.0540911965072155,0.927071213722229,
375386,0.012130203656852245,0.006588169373571873,0.9733428359031677,
375396,0.008156150579452515,0.008496558293700218,0.9264212250709534,
375406,-0.005019905511289835,-0.003002634271979332,0.9375463128089905,
375416,-0.008388346992433071,0.02554960921406746,1.0124627351760864,
375426,0.02369268424808979,0.05564887076616287,0.9638273119926453,
375436,0.003508915426209569,-0.008097096346318722,0.9342506527900696,
375446,-0.0009249455179087818,-0.017104454338550568,0.9741777777671814,
375456,0.027146100997924805,0.07033563405275345,0.9044853448867798,
375466,-0.0400218702852726,-0.0007500876672565937,0.9869361519813538,
375476,-0.021909678354859352,-0.01662539318203926,0.9997790455818176,
375486,0.0036557649727910757,0.06967341899871826,0.9315524697303772,
375496,-0.00029739001183770597,0.03575293347239494,1.0022575855255127,
375506,-0.009540240280330181,-0.013477948494255543,0.9939641952514648,
375516,0.008235873654484749,-0.010508382692933083,0.9693168997764587,
375526,-0.01205205637961626,0.14934372901916504,0.9969520568847656,
375536,0.00951556209474802,-0.014564093202352524,0.9601857662200928,
375546,-0.018297895789146423,-0.025282053276896477,0.984797477722168,
375556,0.016775792464613914,-0.004034197889268398,0.9889715909957886,
375566,-0.005924002733081579,0.0046135843731462955,1.0063549280166626,
375576,-0.010475496761500835,-0.0054736970923841,1.0193660259246826,
375586,0.0262345802038908,0.03526885062456131,0.9546686410903931,
375596,-0.011501808650791645,-0.013379741460084915,1.0411622524261475,
375606,-0.0058328271843492985,0.014556599780917168,0.9896391034126282,
375616,-0.0038593867793679237,0.03936901316046715,0.9947957992553711,
375626,0.009290853515267372,0.010332955047488213,1.0036725997924805,
375636,-0.008129753172397614,-0.01566384546458721,1.030329704284668,
375646,-0.00878196395933628,0.033489890396595,1.0236740112304688,
375656,0.007428867742419243,0.03637172654271126,1.0315430164337158,
375666,-0.013572409749031067,0.027216723188757896,1.003746747970581,
375676,0.030892634764313698,-0.021592648699879646,1.0354682207107544,
375686,-0.006163685582578182,0.08035653084516525,1.0206090211868286,
375696,-0.003987629897892475,0.054682377725839615,0.998708188533783,
375706,-0.009067453444004059,0.006515521090477705,1.0116357803344727,
375716,-0.00544766103848815,0.001526825362816453,0.9859079122543335,
375726,-0.011887967586517334,0.019497891888022423,0.9615442156791687,
375736,-0.004469489213079214,0.02703443169593811,0.9649820923805237,
375746,0.011757501401007175,-0.0005825402331538498,1.0330690145492554,
375756,-0.014162671752274036,0.005638122092932463,1.0564119815826416,
375766,-0.027714822441339493,0.02826121635735035,1.0157982110977173,
375776,-0.0060629816725850105,0.012973329052329063,1.0251803398132324,
375786,0.007000851910561323,0.054636452347040176,0.9961554408073425,
375796,0.03457406908273697,-0.01741129532456398,0.9718939065933228,
375806,-0.01309310831129551,0.05199886113405228,0.9721506237983704,
375816,0.01877448335289955,0.019381128251552582,1.0172630548477173,
375826,-0.014324777759611607,0.025112159550189972,1.0760884284973145,
375836,-0.03485259786248207,0.010252594947814941,1.0178252458572388,
375846,-0.021690653637051582,0.00415885541588068,1.0059789419174194,
375856,-0.009750003926455975,0.028953583911061287,1.0032744407653809,
375866,-0.005897230468690395,0.015508541837334633,0.9651075005531311,
375876,0.014825652353465557,0.029997829347848892,0.9877086281776428,
375886,0.006598362699151039,0.004805405158549547,1.0383906364440918,
375896,-0.004763317294418812,-0.03501256927847862,1.0906847715377808,
375906,-0.018725914880633354,0.035872120410203934,1.0201764106750488,
375916,-0.014062219299376011,0.026762498542666435,0.9801679849624634,
375926,0.0038313008844852448,0.053382016718387604,0.9514939785003662,
375936,0.022537291049957275,0.024060681462287903,0.9585942625999451,
375946,0.019128594547510147,0.08515234291553497,0.9988471865653992,
375956,-0.014375615864992142,0.028775207698345184,0.9854133725166321,
375966,-0.028674297034740448,0.0004732363158836961,0.9579904675483704,
375976,0.003219617996364832,0.1586882472038269,0.9502460360527039,
375986,0.024539124220609665,0.07349709421396255,0.967424213886261,
375996,0.005443860311061144,-0.018976816907525063,1.010254979133606,
376006,0.012838328257203102,-0.03115275129675865,1.0138251781463623,
376016,-0.008586639538407326,0.006659138947725296,1.0090090036392212,
376026,0.009543967433273792,0.039654120802879333,0.983450710773468,
376036,0.023746876046061516,0.022839754819869995,0.9283095598220825,
376046,-0.020521102473139763,-0.0164057407528162,1.0079141855239868,
376056,-0.0071548172272741795,0.0016311140498146415,0.995693027973175,
376066,-0.005848650820553303,0.0018369370372965932,1.035825490951538,
376076,-0.01023813895881176,-0.013260865584015846,0.9997966885566711,
376086,0.007146731950342655,-0.004298899322748184,0.9586842656135559,
376096,0.025736765936017036,0.11729156225919724,0.9585244059562683,
376106,0.008415453135967255,0.002812107326462865,1.074398398399353,
376116,-0.0347927063703537,-0.02977200224995613,1.0347851514816284,
376126,0.006442094687372446,0.019460588693618774,0.9729515910148621,
376136,0.019625745713710785,0.04002782702445984,0.9753456711769104,
376146,0.002014542929828167,-0.008605238050222397,0.9682834148406982,
376156,-0.006121142767369747,0.0030033078510314226,0.984913170337677,
376166,-0.008055306039750576,-0.0032839798368513584,1.0085099935531616,
376176,-0.0004889373085461557,0.01381765492260456,0.9879904985427856,
376186,0.0037549014668911695,0.019509488716721535,0.9639512896537781,
376196,0.01554818544536829,0.003323798067867756,1.0271254777908325,
376206,-0.009765520691871643,-0.015048377215862274,1.0409549474716187,
376216,-0.026789706200361252,0.0029328465461730957,0.9938205480575562,
376226,-0.011327791959047318,0.05293118953704834,0.9205772876739502,
376236,0.02161920629441738,0.01906658709049225,1.0083351135253906,
376246,0.006829349789768457,-0.01156554650515318,1.0590417385101318,
376256,-0.012274052947759628,0.013987677171826363,1.0232669115066528,
376266,-0.009831329807639122,0.02292661927640438,0.9780613780021667,
376276,0.003831257577985525,0.05356435477733612,0.9663242101669312,
376286,-8.398866339121014e-05,-0.011655066162347794,1.0126745700836182,
376296,-0.011691807769238949,0.01116946805268526,0.9972874522209167,
376306,-0.0062667266465723515,0.004128206521272659,1.0010815858840942,
376316,0.0059316810220479965,-0.010733285918831825,0.9758549928665161,
376326,-0.014014597982168198,-0.00969492644071579,0.9585115909576416,
376336,-0.005654292181134224,-0.005857979413121939,0.9708355665206909,
376346,0.0035032646264880896,0.03602611646056175,0.9927096366882324,
376356,0.0017567252507433295,0.04691265523433685,1.046748161315918,
376366,-0.0009081115131266415,0.00850769504904747,1.0298811197280884,
376376,0.008976683020591736,0.004388466011732817,0.9962582588195801,
376386,0.013846789486706257,0.09375163912773132,0.9631011486053467,
376396,0.021135238930583,0.06582342088222504,0.988055944442749,
376406,0.02486862801015377,-0.04551331326365471,1.093449592590332,
376416,-0.005666220095008612,0.04280820116400719,1.0330712795257568,
376426,-0.016545569524168968,0.02894374169409275,0.9725569486618042,
376436,-0.0004390215908642858,0.06597017496824265,0.9317317605018616,
376446,0.020509256049990654,-0.00020979468536097556,0.9753317832946777,
376456,-0.007792086806148291,0.09169574826955795,1.0164717435836792,
376466,-0.003046870930120349,0.015532320365309715,0.9904501438140869,
376476,-0.023792047053575516,-0.007669918239116669,1.0479438304901123,
376486,-0.0049573080614209175,-0.01157010905444622,1.0249534845352173,
376496,-0.0031337481923401356,0.011840149760246277,1.0005921125411987,
376506,0.0034901692997664213,0.03838339447975159,0.9886273741722107,
376516,0.0018958922009915113,0.042879559099674225,0.9893175363540649,
376526,0.0014026506105437875,-0.024770313873887062,1.0685083866119385,
376536,-0.03784571960568428,-0.02013995312154293,1.0245914459228516,
376546,-0.003982315771281719,0.03905516862869263,1.022016167640686,
376556,-0.0005813338793814182,0.04617990180850029,1.0172991752624512,
376566,0.020690182223916054,-0.017178984358906746,1.0205857753753662,
376576,-0.02301093190908432,-0.003902372671291232,0.9906307458877563,
376586,0.025797700509428978,0.1059790626168251,0.9904200434684753,
376596,0.0218402910977602,0.0025009075179696083,1.0719735622406006,
376606,-0.027772966772317886,-0.0049431282095611095,1.0558969974517822,
376616,-0.027794571593403816,-0.01395630743354559,0.9852794408798218,
376626,-0.01015260349959135,0.019813355058431625,1.0036604404449463,
376636,-0.025751840323209763,0.010280322283506393,1.0052350759506226,
376646,-0.01046128012239933,0.01155785284936428,0.991898775100708,
376656,0.016948552802205086,-0.023898176848888397,0.9839714765548706,
376666,0.0017260442255064845,-0.009160428307950497,1.0474085807800293,
376676,-0.020749934017658234,0.003804122796282172,1.0528875589370728,
376686,-0.0241748858243227,0.011463041417300701,1.0043684244155884,
376696,-0.011716288514435291,-0.010242263786494732,0.9907605051994324,
376706,0.01154629047960043,0.034284986555576324,1.0049909353256226,
376716,0.004999379627406597,-0.011684123426675797,1.0276468992233276,
376726,-0.006435199175029993,0.027904225513339043,1.0004030466079712,
376736,-0.00416046567261219,0.010710722766816616,1.0204862356185913,
376746,-0.004216829314827919,0.0297502763569355,1.0350583791732788,
376756,0.001462659565731883,-0.003050766885280609,0.9652054309844971,
376766,-0.02880866639316082,0.04902015998959541,0.9427284002304077,
376776,0.00934967678040266,0.04901237413287163,0.974541962146759,
376786,-0.01848633959889412,0.036033183336257935,1.0183199644088745,
376796,-0.0022382172755897045,0.04607919231057167,0.992531955242157,
376806,-0.000659201992675662,-0.010476628318428993,0.9846843481063843,
376816,0.04187733307480812,-0.0021304883994162083,1.006371259689331,
376826,0.01806754246354103,-0.007787054870277643,1.0064587593078613,
376836,-0.0050865644589066505,-0.0002883962297346443,1.0355769395828247,
376846,-0.019673170521855354,0.016415683552622795,1.031313419342041,
376856,0.008313819766044617,0.038929250091314316,1.0007861852645874,
376866,0.025714684277772903,0.029881620779633522,0.9798584580421448,
376876,0.005793773103505373,-0.0303083173930645,1.0239171981811523,
376886,0.0023945369757711887,0.03352418169379234,1.0295865535736084,
376896,0.004414757248014212,0.03480857238173485,0.9791852831840515,
376906,0.005527764558792114,0.021887408569455147,0.9778431057929993,
376916,0.006672133691608906,-0.022357014939188957,1.004807949066162,
376926,-0.007958550937473774,0.024370867758989334,1.0109695196151733,
376936,-0.010995890945196152,0.0001261324214283377,0.9626554846763611,
376946,-0.009886707179248333,0.07805371284484863,0.9234088659286499,
376956,0.011091240681707859,0.05806766077876091,0.9431595206260681,
376966,-0.012150941416621208,0.023311251774430275,1.0088458061218262,
376976,-0.018337998539209366,0.03138295188546181,0.9873283505439758,
376986,0.004937989637255669,-0.008669160306453705,0.9671297669410706,
376996,0.03746933862566948,-0.02810252457857132,0.980466365814209,
377006,-0.011874011717736721,-0.02291787788271904,0.9895115494728088,
377016,-0.02090504765510559,0.02808006852865219,0.9908586144447327,
377026,-0.013882129453122616,0.00898020714521408,1.0134490728378296,
377036,0.01341966725885868,0.008776973932981491,0.9805842638015747,
377046,0.017643677070736885,0.009168843738734722,0.9783644676208496,
377056,-0.007950709201395512,-0.008524687960743904,1.0029172897338867,
377066,-0.019910616800189018,0.003547371132299304,1.0157595872879028,
377076,-0.006687312386929989,0.007998651824891567,1.0007224082946777,
377086,0.0030490150675177574,0.006263664923608303,0.9711471796035767,
377096,-0.003860605414956808,-0.0013116768095642328,0.9879733324050903,
377106,-0.0009177172323688865,0.001181507483124733,1.0060858726501465,
377116,0.0033934309612959623,0.013348514214158058,1.0190544128417969,
377126,0.007091732695698738,0.02582821622490883,0.9927454590797424,
377136,0.007478886749595404,0.008195679634809494,0.9729300141334534,
377146,-0.003355619730427861,-0.011113041080534458,1.020954966545105,
377156,-0.012066465802490711,0.04384193196892738,0.9914066195487976,
377166,-0.016230769455432892,-0.002219659509137273,0.9425919651985168,
377176,0.007841736078262329,0.06554987281560898,0.9150503277778625,
377186,0.01578516885638237,0.001410720869898796,0.9896467328071594,
377196,-0.017498908564448357,0.11342490464448929,1.0455124378204346,
377206,-0.03794025257229805,0.02549273893237114,0.9907722473144531,
377216,0.0010038659675046802,0.03892807289958,0.9586787819862366,
377226,0.013655726797878742,0.06061861664056778,0.9840250611305237,
377236,-0.010034523904323578,0.09032554924488068,1.03626549243927,
377246,0.008814550936222076,-0.008280063979327679,1.0217636823654175,
377256,-0.03357676789164543,-0.004625809378921986,1.0065982341766357,
377266,0.006809581536799669,0.06636674702167511,1.0129035711288452,
377276,-0.00666359206661582,0.03687644377350807,1.0035678148269653,
377286,0.011569536291062832,0.0020314338617026806,0.9925227165222168,
377296,-0.001683992799371481,-0.014665095135569572,1.011976718902588,
377306,0.011079511605203152,0.02881176397204399,1.025572657585144,
377316,-0.0044985609129071236,0.026008015498518944,1.015309453010559,
377326,-0.009447792544960976,0.006098702549934387,1.0239596366882324,
377336,0.011871326714754105,-0.007992248982191086,0.9888992309570312,
377346,-0.015726346522569656,0.00829918123781681,0.9986362457275391,
377356,-0.009172303602099419,0.021388957276940346,0.9884290099143982,
377366,-0.008275201544165611,0.00979450810700655,1.038388967514038,
377376,0.010913488455116749,-0.01955106109380722,1.0141322612762451,
377386,-0.009290127083659172,0.004071483854204416,0.9849573373794556,
377396,-0.0018329496961086988,0.0207107812166214,0.9822529554367065,
377406,0.0065787010826170444,0.0177325252443552,1.0067824125289917,
377416,-0.009782083332538605,0.009701637551188469,1.064859390258789,
377426,-0.026832012459635735,0.010724824853241444,0.9947054982185364,
377436,-0.006677999626845121,-0.00978217925876379,0.9708547592163086,
377446,-0.010287216864526272,0.03190747648477554,0.9773290157318115,
377456,1.8856899259844795e-05,0.03789428249001503,0.9958033561706543,
377466,-0.0030759077053517103,0.03868117183446884,0.9848547577857971,
377476,0.025547057390213013,0.007579273544251919,1.0288310050964355,
377486,-0.02720514126121998,0.03140570595860481,1.0246771574020386,
377496,-0.012237654998898506,0.005682924762368202,1.0061640739440918,
377506,-0.012250700034201145,0.07171563059091568,0.9540838599205017,
377516,0.01215752400457859,0.015248291194438934,0.9812690615653992,
377526,-0.010410317219793797,0.004399668890982866,0.9944002628326416,
377536,-0.010721907019615173,0.021309955045580864,0.9770278334617615,
377546,-0.015078426338732243,0.041368499398231506,0.9720680713653564,
377556,0.016790715977549553,-0.006104606669396162,0.9565598964691162,
377566,-0.019082438200712204,-0.028363320976495743,1.033363938331604,
377576,0.002100597135722637,0.004895063117146492,0.9848490357398987,
377586,-0.00629208330065012,0.008143306709825993,0.9732882380485535,
377596,-0.007548009045422077,0.011917839758098125,1.0297633409500122,
377606,-0.013835004530847073,0.0019101124489679933,1.0200307369232178,
377616,0.006738360971212387,-0.0022645313292741776,0.9929317235946655,
377626,0.008392471820116043,0.027957497164607048,0.9823946356773376,
377636,0.004314479883760214,0.020124884322285652,1.0052189826965332,
377646,0.019422754645347595,0.05611497536301613,0.9537842273712158,
377656,0.00792642217129469,-0.0073423488065600395,0.9316620826721191,
377666,-0.0069023300893604755,0.005963025614619255,0.9763555526733398,
377676,-0.0033102803863584995,0.0048104883171617985,1.0159735679626465,
377686,-0.002260435838252306,0.08961032330989838,1.0040971040725708,
377696,0.026672586798667908,-0.01828191615641117,0.9612686634063721,
377706,-0.017086723819375038,0.009200965985655785,1.0059599876403809,
377716,0.0032417785841971636,0.04946039617061615,1.019312858581543,
377726,-0.030703289434313774,0.07332544773817062,1.0290287733078003,
377736,0.008054958656430244,-0.01745237037539482,0.9760376214981079,
377746,-0.011481777764856815,-0.0100275669246912,0.9947707056999207,
377756,0.011801136657595634,0.023066550493240356,1.0006282329559326,
377766,-0.00672298576682806,0.02948951907455921,1.0053837299346924,
377776,-0.015091322362422943,0.0038884952664375305,1.042251706123352,
377786,-0.024102065712213516,0.01140643935650587,1.0498453378677368,
377796,0.014571916311979294,0.00958225131034851,1.0351893901824951,
377806,-0.0008791661239229143,0.006744218058884144,1.0205411911010742,
377816,-0.004388913046568632,0.0016251326305791736,1.011277675628662,
377826,-0.0019854619167745113,-0.006554900668561459,1.0145682096481323,
377836,-0.019438397139310837,-0.002590074436739087,1.047421932220459,
377846,0.004168959334492683,0.01741393469274044,1.0294803380966187,
377856,0.0013608773006126285,0.017015188932418823,1.0301704406738281,
377866,0.004112064838409424,-0.010892918333411217,1.0033295154571533,
377876,-0.0034089426044374704,0.010408401489257812,0.9771929979324341,
377886,0.007686041295528412,-0.004935413133352995,0.9761114120483398,
377896,0.00030567555222660303,0.015417114831507206,0.9834344387054443,
377906,-0.0013341857120394707,-0.009501475840806961,1.0273194313049316,
377916,-0.005516369361430407,0.019935572519898415,1.0590553283691406,
377926,-0.014041109010577202,0.012595129199326038,1.014879584312439,
377936,-0.011816184967756271,-0.0017781133065000176,0.9988164901733398,
377946,0.0049515822902321815,0.042762838304042816,0.9799033403396606,
377956,0.00930374301970005,-0.014944697730243206,0.9507407546043396,
377966,0.006318963132798672,0.040746141225099564,0.9787627458572388,
377976,0.008358120918273926,-0.005591540597379208,1.0334868431091309,
377986,-0.027065658941864967,0.07295776158571243,1.052003264427185,
377996,-0.028837494552135468,0.04953497648239136,0.9780104160308838,
378006,0.004949412774294615,0.04386213421821594,0.9476320743560791,
378016,0.021207574754953384,0.08011463284492493,0.9843482971191406,
378026,-0.001476363162510097,0.04578523337841034,1.0037648677825928,
378036,0.011497312225401402,-0.014654001221060753,1.0036323070526123,
378046,-0.013473055325448513,-0.03633575886487961,1.018975019454956,
378056,-0.0033752021845430136,0.04514153674244881,1.007612943649292,
378066,0.0016584579134359956,0.05326307564973831,0.9829223155975342,
378076,0.006687790621072054,0.011704771779477596,1.0055439472198486,
378086,0.007489204406738281,0.00033265305683016777,1.0099411010742188,
378096,-0.010858100838959217,0.0014889866579324007,1.0287673473358154,
378106,0.010843195021152496,0.02162192575633526,0.9924383163452148,
378116,0.017978286370635033,0.010702433064579964,0.997913658618927,
378126,0.00913780927658081,0.005412205588072538,1.0093365907669067,
378136,-0.0016431466210633516,0.021622033789753914,0.9944659471511841,
378146,-0.014427930116653442,-0.00762241380289197,1.0056108236312866,
378156,0.011644921265542507,0.006521237548440695,0.9819759726524353,
378166,0.014422936365008354,-0.003523800987750292,1.0113310813903809,
378176,0.00485438434407115,0.019269537180662155,1.008352279663086,
378186,-0.004125356208533049,-0.007146164774894714,1.0093374252319336,
378196,0.012769930996000767,0.021244864910840988,0.9390857815742493,
378206,0.010289348661899567,0.008880182169377804,0.9576671123504639,
378216,5.884694019187009e-06,0.016205869615077972,1.0227346420288086,
378226,0.001987655181437731,-0.0030750094447284937,1.0125749111175537,
378236,0.016450878232717514,0.05013008043169975,0.9629345536231995,
378246,0.019194288179278374,0.022223733365535736,0.9830014109611511,
378256,-0.022770043462514877,0.014688358642160892,1.00743567943573,
378266,-0.016626426950097084,-0.0010591571917757392,0.9645496010780334,
378276,0.0004109538858756423,0.035419683903455734,0.9539453983306885,
378286,0.028117602691054344,-0.004802451469004154,1.0151373147964478,
378296,-0.026903679594397545,0.005878014490008354,1.02645742893219,
378306,0.011924609541893005,-0.026222843676805496,0.9780392646789551,
378316,0.0012649670243263245,0.024035565555095673,0.9804536700248718,
378326,0.012429053895175457,0.05696112662553787,1.0002363920211792,
378336,0.003886580467224121,0.07812660187482834,0.995483934879303,
378346,0.016561562195420265,0.028359785676002502,0.9882949590682983,
378356,-0.004127149004489183,0.013225672766566277,0.9414466023445129,
378366,-0.010575015097856522,0.004095056559890509,0.9689038395881653,
378376,0.00035565582220442593,0.03668200969696045,1.0005812644958496,
378386,0.020155958831310272,-0.012919768691062927,0.9529920220375061,
378396,-0.014176816679537296,-0.009046502411365509,0.9987993240356445,
378406,-0.007164971437305212,0.018644297495484352,1.0007392168045044,
378416,-0.010611411184072495,0.04500861093401909,1.036544680595398,
378426,0.01387503370642662,-0.0008540619746781886,1.0190075635910034,
378436,-0.03161291405558586,0.003316359594464302,1.003498911857605,
378446,-0.004399178083986044,0.10022564977407455,0.9998844265937805,
378456,0.022290043532848358,0.02051694691181183,0.9830576181411743,
378466,0.036330319941043854,-0.014629552140831947,0.9952753782272339,
378476,-0.021728869527578354,-0.01314051728695631,0.9937206506729126,
378486,-0.002849290845915675,0.040498580783605576,1.0086332559585571,
378496,-0.0037464513443410397,0.02359345369040966,0.9977065324783325,
378506,0.0008104137377813458,0.0040214695036411285,0.9980995059013367,
378516,-0.01050003245472908,0.0006175948074087501,1.0530203580856323,
378526,0.006595253478735685,0.024263646453619003,0.9872117638587952,
378536,0.01360536739230156,0.03803239390254021,0.9522606730461121,
378546,0.011836409568786621,-0.013693094253540039,1.0244204998016357,
378556,-0.02263438142836094,0.0020556135568767786,1.0160444974899292,
378566,-3.028651190106757e-05,-0.017921671271324158,0.95667564868927,
378576,0.0005247969529591501,0.03581123426556587,0.9805433750152588,
378586,-0.009527879767119884,0.00010766827472252771,1.0038795471191406,
378596,-0.0006134807481430471,-0.00826694443821907,0.9932580590248108,
378606,-0.00013680137635674328,-0.0002267656527692452,0.9789541959762573,
378616,-0.0006337552331387997,0.01516692340373993,0.988359808921814,
378626,-0.002290956676006317,0.013528850860893726,1.0031874179840088,
378636,-0.008736779913306236,-0.00033756770426407456,1.0505380630493164,
378646,0.014259102754294872,-0.015371466986835003,0.9983494877815247,
378656,-0.0032628828193992376,-0.006923888809978962,1.0278358459472656,
378666,-0.007274510804563761,0.0488714836537838,0.9991395473480225,
378676,-0.008343650959432125,0.006773979868739843,0.9900455474853516,
378686,0.007279359269887209,-0.000241836576606147,1.0104849338531494,
378696,-0.002576616359874606,0.01824874058365822,1.0027954578399658,
378706,0.020339179784059525,0.04650897905230522,0.9613121747970581,
378716,0.03497368097305298,0.04580239951610565,0.9111714363098145,
378726,-0.0073967985808849335,0.00359737197868526,1.0168747901916504,
378736,0.002294867532327771,0.01698976755142212,0.9899524450302124,
378746,0.006724584847688675,0.0353207141160965,0.9531307220458984,
378756,0.020678652450442314,0.01897677220404148,0.9955591559410095,
378766,-0.021076852455735207,-0.029003266245126724,1.0385503768920898,
378776,-0.010127156041562557,-0.008330152370035648,1.0263444185256958,
378786,0.00844787061214447,0.0660238116979599,0.9693361520767212,
378796,0.029118038713932037,0.03943122178316116,0.9999086856842041,
378806,0.027079379186034203,-0.024165602400898933,1.0734747648239136,
378816,-0.002648458583280444,0.006360417231917381,1.0270819664001465,
378826,-0.002318095648661256,0.06414801627397537,0.9568607807159424,
378836,0.026527544483542442,0.09027675539255142,0.9589764475822449,
378846,0.0048756361939013,-0.011706143617630005,1.0449501276016235,
378856,-0.01319486740976572,0.050897203385829926,1.0186420679092407,
378866,0.0013562241801992059,0.030942950397729874,1.001550555229187,
378876,0.011125681921839714,0.027574941515922546,0.9859721660614014,
378886,0.003561577992513776,0.009635848924517632,0.9893712401390076,
378896,-0.007987303659319878,0.025305140763521194,0.9818477630615234,
378906,-0.007381650153547525,0.02742546610534191,1.0029432773590088,
378916,-0.004757025744765997,0.014447200112044811,1.0057494640350342,
378926,0.006625879090279341,-0.028198955580592155,0.9556583762168884,
378936,-0.001565793645568192,-0.009589041583240032,0.9894436597824097,
378946,0.007938679307699203,0.011353537440299988,1.008335828781128,
378956,-0.0043594869785010815,0.021288014948368073,1.0227631330490112,
378966,-0.005564662162214518,0.011806937865912914,1.0113286972045898,
378976,-0.014120529405772686,0.005434595514088869,0.9894445538520813,
378986,-0.0028300676494836807,0.0034780732821673155,0.9945708513259888,
378996,-0.006417994853109121,0.011206534691154957,1.0319904088974,
379006,-0.00010926817776635289,-0.001646562828682363,1.0238831043243408,
379016,-0.013441449031233788,0.009322757832705975,0.9905718564987183,
379026,-0.0014066682197153568,0.0037640256341546774,0.9723374843597412,
379036,0.0006596297025680542,0.05259128287434578,0.9883336424827576,
379046,0.019658135250210762,0.046491675078868866,1.0328181982040405,
379056,-0.014253251254558563,-0.0005141704459674656,1.0755858421325684,
379066,-0.021715974435210228,-0.014894983731210232,1.0202208757400513,
379076,-0.004599615000188351,0.03139835596084595,0.9650804400444031,
379086,0.018022755160927773,0.11060184240341187,0.9779852032661438,
379096,0.001638098037801683,0.018717046827077866,1.0351065397262573,
379106,-0.014651707373559475,-0.0005528084002435207,1.0088081359863281,
379116,-0.008204091340303421,0.024252435192465782,0.9949906468391418,
379126,-0.013249087147414684,0.03466297313570976,1.01156747341156,
379136,0.00611127819865942,0.01775030791759491,1.0117802619934082,
379146,0.002812544582411647,0.015351768583059311,0.964789092540741,
379156,0.008525562472641468,-0.0014290210092440248,1.0018507242202759,
379166,-0.006321383640170097,0.010202734731137753,1.0180267095565796,
379176,-0.001634943881072104,-0.0011458868393674493,1.0396771430969238,
379186,-0.0075605278834700584,0.011698335409164429,1.0354124307632446,
379196,-0.0058883242309093475,-0.007621122524142265,1.0006153583526611,
379206,0.02986212633550167,0.06307714432477951,0.9511569738388062,
379216,0.018874846398830414,0.014752572402358055,0.9246053695678711,
379226,-0.016386983916163445,0.0003394247032701969,0.99326092004776,
379236,0.004328494891524315,0.012947582639753819,1.0101642608642578,
379246,-0.009699138812720776,0.06002621352672577,1.0411717891693115,
379256,-0.029848378151655197,0.00033135502599179745,1.013705849647522,
379266,-0.019845599308609962,0.027172019705176353,0.9600679874420166,
379276,0.03217211365699768,0.16944797337055206,0.956340491771698,
379286,0.048691172152757645,0.023134712129831314,1.0485663414001465,
379296,-0.006354895420372486,-0.031449832022190094,1.0539339780807495,
379306,-0.012325447984039783,-0.01136817131191492,1.0004690885543823,
379316,-0.004184417892247438,0.08876147866249084,1.0071254968643188,
379326,0.009135077707469463,0.03803419694304466,0.9985267519950867,
379336,0.005103664472699165,-0.012798679992556572,1.0202716588974,
379346,0.0025592795573174953,0.010044191032648087,1.0094660520553589,
379356,-0.006649386137723923,0.011758184060454369,1.0183768272399902,
379366,-0.0010562773095443845,0.02151605300605297,1.0355156660079956,
379376,0.014371635392308235,0.0041908384300768375,1.0290802717208862,
379386,-0.0026382498908787966,-0.01626552641391754,1.011720895767212,
379396,0.0183327104896307,0.04580080881714821,0.9664890766143799,
379406,0.02395227737724781,0.022520223632454872,0.983508825302124,
379416,0.008339501917362213,0.011844226159155369,1.0383085012435913,
379426,-0.012493845075368881,-0.033348724246025085,1.0492570400238037,
379436,-0.009622608311474323,0.0014341514324769378,1.0180739164352417,
379446,0.021163316443562508,-0.0001496025506639853,0.96721351146698,
379456,0.002084182808175683,0.016987744718790054,0.9887336492538452,
379466,0.02147182822227478,0.06190520152449608,0.9713392853736877,
379476,-0.011138982139527798,0.06035798415541649,1.0250380039215088,
379486,-0.019594373181462288,-0.020258232951164246,0.9933404922485352,
379496,-0.0247244443744421,0.02321934700012207,0.9274588823318481,
379506,0.008152641355991364,0.060947127640247345,0.9474770426750183,
379516,-0.00566898426041007,0.021098315715789795,1.0017517805099487,
379526,-0.0034598233178257942,0.0038716085255146027,1.0256646871566772,
379536,-0.007836299948394299,-0.004136452917009592,1.0334635972976685,
379546,-0.006022193469107151,0.010757938027381897,1.0401668548583984,
379556,-0.017958352342247963,0.0075437226332724094,1.0078349113464355,
379566,-0.008530677296221256,0.01479356549680233,0.9958852529525757,
379576,0.010566672310233116,-0.02271817997097969,0.9703797698020935,
379586,-0.009059077128767967,0.00700429966673255,1.0139445066452026,
379596,0.002193982945755124,-0.007371032610535622,1.0396785736083984,
379606,-0.000891246716491878,0.01369167398661375,1.0214402675628662,
379616,-0.006374507211148739,0.007817454636096954,1.0540543794631958,
379626,-0.01635008305311203,0.04163104295730591,1.0098274946212769,
379636,-0.008344373665750027,-0.00420291256159544,0.9622703790664673,
379646,-0.008773899637162685,0.012357346713542938,0.9400898814201355,
379656,0.01769406907260418,0.013550415635108948,1.0007847547531128,
379666,0.005435419734567404,0.0587451308965683,1.0345851182937622,
379676,-0.010673410259187222,0.026399891823530197,1.0102322101593018,
379686,-0.0164662953466177,-0.033201150596141815,1.0053991079330444,
379696,-0.016907406970858574,0.10657615214586258,0.9991238713264465,
379706,0.003572954097762704,0.027141746133565903,0.9938766956329346,
379716,0.030815403908491135,-8.375463949050754e-05,1.0255300998687744,
379726,0.027197521179914474,-0.007937677204608917,1.002408742904663,
379736,-0.010641123168170452,0.023813903331756592,1.0018197298049927,
379746,0.004472197964787483,0.05370812490582466,1.0114961862564087,
379756,-0.021471165120601654,-0.02344372123479843,1.0624243021011353,
379766,-0.011245666071772575,-0.02927207015454769,1.033882975578308,
379776,-0.0025232217740267515,0.033932458609342575,0.9885768294334412,
379786,0.012593243271112442,0.05617176368832588,0.976288914680481,
379796,-0.0010440313490107656,0.01735806278884411,0.991997241973877,
379806,-0.002421985613182187,-0.030542105436325073,1.0201505422592163,
379816,0.004546626936644316,0.07055588811635971,0.951998233795166,
379826,0.021713443100452423,0.005577087868005037,0.9792346358299255,
379836,-0.024320058524608612,0.023758266121149063,0.9788970947265625,
379846,-0.01583721674978733,0.04112022742629051,0.9974651336669922,
379856,0.0014923198614269495,0.07861921191215515,0.9577955007553101,
379866,0.04612052068114281,0.032180044800043106,1.0038362741470337,
379876,-0.01899709925055504,-0.014222590252757072,1.020842432975769,
379886,-0.0035389671102166176,0.0007429919787682593,0.9816416501998901,
379896,0.0045111458748579025,0.013717438094317913,0.9657695889472961,
379906,0.004960409831255674,-0.004983933176845312,0.9489176869392395,
379916,-0.0013187539298087358,-0.010034503415226936,0.9862247109413147,
379926,-0.026847612112760544,0.0042980085127055645,0.966073751449585,
379936,-0.02116728574037552,0.008347881026566029,0.9411999583244324,
379946,-0.01280168630182743,0.02694062516093254,0.973037838935852,
379956,-0.007983960211277008,0.009107189252972603,0.9912170767784119,
379966,0.00015860995335970074,0.013193723745644093,0.9528833627700806,
379976,-0.004070034716278315,-0.005333895795047283,0.9928434491157532,
379986,-0.011523040942847729,0.06281248480081558,0.9613762497901917,
379996,0.006068148650228977,0.01239537913352251,0.9320630431175232,
380006,-0.021370939910411835,0.0434826985001564,0.9620031714439392,
380016,-0.020897025242447853,0.015550216659903526,0.9860210418701172,
380026,0.011776638217270374,0.10106018930673599,0.9613394141197205,
380036,0.03046867623925209,0.07724745571613312,0.9912016987800598,
380046,-0.022928854450583458,0.003084731986746192,1.0073087215423584,
380056,0.013387829065322876,-0.02335827797651291,1.0154991149902344,
380066,0.001017467468045652,0.012124910019338131,0.9866622090339661,
380076,-0.0013806369388476014,0.019952354952692986,0.9754816889762878,
380086,0.0025610027369111776,0.02045716904103756,1.027205228805542,
380096,-0.0026530458126217127,-0.008525019511580467,0.9825255274772644,
380106,-0.016717998310923576,-0.0016709205228835344,0.9838822484016418,
380116,0.002247287193313241,0.07212235778570175,0.9726139307022095,
380126,-0.016885070130228996,0.015248201787471771,1.038646936416626,
380136,-0.006536381784826517,-0.013205815106630325,1.0001991987228394,
380146,0.02080596052110195,-0.0063301920890808105,0.9793049693107605,
380156,0.0255304966121912,0.06420687586069107,0.9854602217674255,
380166,-0.02152325212955475,0.00016084084927570075,0.9818544387817383,
380176,-0.01536550372838974,-0.02360198274254799,0.993462324142456,
380186,0.0017632656963542104,0.14650964736938477,0.9455007910728455,
380196,0.0017991578206419945,0.08586082607507706,0.9685408473014832,
380206,0.002613056916743517,-0.008575854822993279,1.015260100364685,
380216,-0.027455173432826996,-0.030595319345593452,0.9988223910331726,
380226,-0.024617068469524384,0.01812063716351986,1.0081216096878052,
380236,-0.01919570006430149,0.03935685381293297,1.0141788721084595,
380246,-0.007815340533852577,0.019854214042425156,0.9933035373687744,
380256,0.021243970841169357,0.04033985361456871,0.9845635294914246,
380266,0.012288733385503292,-0.02264205925166607,1.031029224395752,
380276,0.002902695909142494,0.014970135875046253,1.037797212600708,
380286,-0.017811480909585953,0.027876080945134163,1.0021917819976807,
380296,-0.004324676934629679,0.04742683097720146,0.9465777277946472,
380306,0.017694108188152313,0.03503376990556717,0.9531888365745544,
380316,0.00690904026851058,0.00728343240916729,1.010375738143921,
380326,-0.02636847086250782,0.04381503537297249,1.0308783054351807,
380336,-0.025109561160206795,0.009876220487058163,1.0197503566741943,
380346,-0.012605269439518452,0.04441722482442856,1.0033196210861206,
380356,0.003969465848058462,0.012483523227274418,1.0045310258865356,
380366,-0.012753250077366829,0.05788339301943779,0.9668661952018738,
380376,-0.0004441279743332416,0.022177862003445625,0.9994924664497375,
380386,-0.0146028446033597,0.006591047625988722,1.0035288333892822,
380396,-0.007253482937812805,0.024864602833986282,1.0078426599502563,
380406,-0.0062010097317397594,0.013907262124121189,1.0218092203140259,
380416,-0.006685270462185144,-0.015122496522963047,1.0189369916915894,
380426,-0.036554016172885895,0.02649044245481491,1.008381962776184,
380436,-0.00792970135807991,-0.001639578607864678,0.9965157508850098,
380446,0.010982186533510685,0.04256969317793846,0.9661957621574402,
380456,0.023184429854154587,0.005327390041202307,1.0288417339324951,
380466,-0.03887949138879776,0.010692075826227665,1.0690996646881104,
380476,-0.03495648875832558,0.01598321832716465,1.0185259580612183,
380486,-0.011252988129854202,0.02345237135887146,0.9633897542953491,
380496,0.019182655960321426,0.04639582335948944,0.9911930561065674,
380506,0.000874712597578764,0.008939393796026707,1.0562156438827515,
380516,-0.021561872214078903,0.011187595315277576,1.0422757863998413,
380526,-0.011811482720077038,0.009633558802306652,1.000815510749817,
380536,-0.014132613316178322,0.06315296143293381,1.0117058753967285,
380546,-0.009364649653434753,0.0322297140955925,0.9794536828994751,
380556,0.002475616754963994,0.007887027226388454,0.994251012802124,
380566,0.00614107446745038,-0.00627481285482645,1.0108036994934082,
380576,-0.0014498996315523982,-0.01605233922600746,1.019620656967163,
380586,-0.013119887560606003,-0.01865077205002308,1.0447791814804077,
380596,-0.004959896672517061,-0.0014314251020550728,0.9635213613510132,
380606,-0.012582800351083279,0.003921844065189362,0.9490387439727783,
380616,0.008134881034493446,0.04573001712560654,0.9894281625747681,
380626,-0.009120591916143894,-0.010710557922720909,1.046183705329895,
380636,-0.030034581199288368,0.01046054158359766,1.007878065109253,
380646,-0.014159810729324818,0.019402282312512398,0.9563243389129639,
380656,0.007217260077595711,0.08341191709041595,0.964185893535614,
380666,0.02570064552128315,0.006638469640165567,1.0377380847930908,
380676,-0.025654016062617302,-0.0078138941898942,1.0341907739639282,
380686,-0.012154252268373966,-0.008230618201196194,0.9895117282867432,
380696,-0.017491495236754417,0.02865002118051052,0.9818081259727478,
380706,0.0044976030476391315,0.02069191262125969,0.969689667224884,
380716,-0.0018497908022254705,0.002299955114722252,0.9638499617576599,
380726,-0.026562735438346863,-0.009301701560616493,0.9945096373558044,
380736,-0.01834104396402836,0.010944340378046036,1.0142451524734497,
380746,0.00010998045036103576,0.018442153930664062,0.9820557832717896,
380756,0.010234600864350796,0.017077038064599037,0.9965658783912659,
380766,0.005991143640130758,-0.018167829141020775,1.044342041015625,
380776,-0.003978641238063574,0.030778300017118454,1.0179799795150757,
380786,-0.002063529333099723,0.0481296144425869,0.9860338568687439,
380796,0.008103216998279095,0.01963724195957184,0.9824275970458984,
380806,0.0037402031011879444,0.0004704032326117158,1.0268795490264893,
380816,-0.02302817814052105,0.04993162304162979,1.0286849737167358,
380826,-0.018669528886675835,0.05958347022533417,1.0124534368515015,
380836,-0.00567765673622489,0.08629191666841507,0.9562844038009644,
380846,0.005727683659642935,0.0004691133217420429,1.001977801322937,
380856,-0.015984294936060905,0.021351752802729607,0.9995079636573792,
380866,-0.00034186115954071283,-0.0200347863137722,1.0014387369155884,
380876,-0.006058054510504007,0.0029710789676755667,1.001111626625061,
380886,-0.01082558836787939,-0.011833487078547478,0.9634467959403992,
380896,-0.011219365522265434,-0.016296226531267166,1.0043326616287231,
380906,-0.013728196732699871,0.031311921775341034,0.9768421053886414,
380916,-0.012642418965697289,0.03378323093056679,1.0074621438980103,
380926,-0.009287015534937382,0.0283059012144804,0.9725453853607178,
380936,0.017499646171927452,-0.005703730043023825,0.9866493940353394,
380946,-8.893961785361171e-05,0.021093636751174927,1.0396718978881836,
380956,-0.023833077400922775,0.0007233080687001348,0.9928542375564575,
380966,-0.034226469695568085,0.0053763920441269875,0.9522916674613953,
380976,0.0026331895496696234,0.090272456407547,0.9314550757408142,
380986,0.018088646233081818,0.08380038291215897,0.9996487498283386,
380996,-0.02521638385951519,0.026471620425581932,1.0091925859451294,
381006,-0.013539448380470276,-0.036287128925323486,0.9635736346244812,
381016,-0.014209732413291931,0.020573565736413002,0.9868209958076477,
381026,-0.008076093159615993,0.05184506997466087,0.9626182913780212,
381036,-0.003949843347072601,0.03596477210521698,1.007167100906372,
381046,0.009940802119672298,0.03481815382838249,1.0113927125930786,
381056,-0.015683116391301155,0.006057959981262684,0.963130533695221,
381066,-0.0019635376520454884,0.017758259549736977,0.977645218372345,
381076,0.011149085126817226,0.02508958987891674,0.9753250479698181,
381086,-0.004047481343150139,0.036922670900821686,1.0362435579299927,
381096,-0.018163073807954788,0.01768614910542965,1.0276591777801514,
381106,-0.008765039965510368,0.007022242061793804,1.0337613821029663,
381116,-0.0021573235280811787,0.046249330043792725,0.9823663830757141,
381126,-0.00011268849630141631,-0.005768284667283297,0.9378799200057983,
381136,0.009405337274074554,0.06939753890037537,0.9558647871017456,
381146,0.03067411296069622,0.04442065209150314,1.013604998588562,
381156,-0.04535966366529465,0.03227672353386879,1.0802388191223145,
381166,-0.03675246983766556,-0.021760189905762672,1.0187708139419556,
381176,-0.02662690356373787,0.028400875627994537,1.0052634477615356,
381186,-0.0073351506143808365,0.04742011800408363,1.000364899635315,
381196,-0.015557858161628246,0.010033420287072659,0.990840494632721,
381206,0.014072435908019543,0.04452991113066673,0.9812161922454834,
381216,0.007968585006892681,0.009422335773706436,0.9988722205162048,
381226,0.0031260610558092594,-0.04297270625829697,1.068284034729004,
381236,-0.0075449892319738865,0.07462350279092789,1.0407978296279907,
381246,-0.025255471467971802,-0.006487535312771797,1.0337419509887695,
381256,-0.005014204885810614,0.02092611789703369,0.9828497767448425,
381266,0.01664758287370205,-0.0030281248036772013,0.986718475818634,
381276,0.00896528922021389,0.09112773835659027,0.9620316028594971,
381286,0.004538573790341616,0.05453433841466904,0.9720659852027893,
381296,0.002850082702934742,0.005848899949342012,1.0280983448028564,
381306,-0.018132008612155914,0.1302962303161621,1.0174500942230225,
381316,-0.024944275617599487,0.06309150159358978,0.9695338010787964,
381326,0.021058348938822746,0.04286378249526024,0.9664276242256165,
381336,-0.03271856904029846,-0.0317680723965168,0.9829850196838379,
381346,-0.014533335343003273,0.0377141572535038,0.998146653175354,
381356,-0.0061405315063893795,0.01836792379617691,1.0413305759429932,
381366,-0.016718372702598572,-0.0032337591983377934,1.0479358434677124,
381376,0.003360317088663578,-0.0032775034196674824,0.9741533398628235,
381386,0.0005056850495748222,0.004045308567583561,1.0002082586288452,
381396,0.008980387821793556,0.09870896488428116,0.9962031245231628,
381406,0.007481964770704508,0.008531899191439152,1.0595649480819702,
381416,0.010458267293870449,-0.038948897272348404,1.0809072256088257,
381426,-0.00882947538048029,0.04722375050187111,0.9989912509918213,
381436,-0.008882920257747173,0.05428130924701691,0.958075225353241,
381446,0.004199089016765356,0.0689253956079483,0.9287396669387817,
381456,0.007978134788572788,-0.003740971675142646,0.9990121722221375,
381466,-0.014533630572259426,0.06975115835666656,1.0210951566696167,
381476,-0.038174353539943695,0.009846985340118408,0.9406671524047852,
381486,-0.03072664700448513,0.030395859852433205,0.9404533505439758,
381496,-0.0021269451826810837,0.04748993739485741,0.9791788458824158,
381506,-0.0008262642077170312,0.028617175295948982,1.0070799589157104,
381516,0.023542821407318115,0.01804731972515583,1.0067764520645142,
381526,0.012218725867569447,-0.007752036675810814,0.9988443851470947,
381536,-0.00718266936019063,0.007820733822882175,1.0161973237991333,
381546,0.012633534148335457,0.06662601977586746,0.9489572048187256,
381556,0.012690145522356033,0.011491658166050911,0.9915720224380493,
381566,-0.008120650425553322,0.005244182422757149,0.9922993779182434,
381576,-0.0016874360153451562,-0.00037342161522246897,1.0154563188552856,
381586,-0.0017725025536492467,0.05719734728336334,0.9630860090255737,
381596,0.012912280857563019,-0.0058745709247887135,0.958124041557312,
381606,-0.006655597127974033,0.04811350628733635,0.9700018763542175,
381616,0.036964286118745804,0.06305751949548721,1.0031880140304565,
381626,-0.06326247751712799,-0.016893748193979263,1.0720833539962769,
381636,-0.028590001165866852,0.028158361092209816,1.0421808958053589,
381646,0.0015002397121861577,0.10671443492174149,1.0047301054000854,
381656,-0.0067603206261992455,0.01996329054236412,1.008018136024475,
381666,0.03937767446041107,-0.028309430927038193,1.0081278085708618,
381676,0.005822270177304745,0.035157009959220886,1.0052390098571777,
381686,0.020929669961333275,0.053241271525621414,1.0000903606414795,
381696,-0.0006966766086407006,-0.007856880314648151,1.0265613794326782,
381706,0.0047593931667506695,-0.02365371584892273,1.0226985216140747,
381716,-0.013047076761722565,0.011129127815365791,1.0135382413864136,
381726,-0.0021581922192126513,0.018326658755540848,1.0346182584762573,
381736,0.00942460261285305,0.03870418295264244,0.991653323173523,
381746,-0.004230989143252373,-0.03230191022157669,1.0134764909744263,
381756,0.014199788682162762,0.03395984321832657,0.9956589341163635,
381766,0.020781850442290306,0.026664379984140396,0.981995165348053,
381776,-0.004143265075981617,0.001830186927691102,1.0334371328353882,
381786,-0.0047929356805980206,-0.0006705334526486695,1.0224610567092896,
381796,-0.012671937234699726,0.022938087582588196,1.0443447828292847,
381806,-0.017198825255036354,0.019547656178474426,0.9940693974494934,
381816,-0.015365279279649258,-0.036768753081560135,0.9963380098342896,
381826,0.0023081356193870306,0.07121923565864563,0.9888772964477539,
381836,0.0012613998260349035,0.007435983512550592,0.9623939394950867,
381846,-0.018656495958566666,0.06729228049516678,0.947500467300415,
381856,-0.00402776338160038,0.00674616452306509,1.019567608833313,
381866,-0.015512325800955296,0.04863069951534271,1.0383936166763306,
381876,-0.01143699511885643,-0.02532048709690571,1.032027244567871,
381886,-0.031085332855582237,-0.020655548200011253,1.0140219926834106,
381896,-0.009139006026089191,0.029750894755125046,1.0040024518966675,
