time,acc.x,acc.y,acc.z,
25396,-0.0016107750125229359,-0.006841286085546017,1.0019420385360718,
25496,-0.0010532101150602102,-0.004285620991140604,1.0003772974014282,
25596,-0.0041586896404623985,-0.00657921377569437,0.9993739724159241,
25696,0.0007107828860171139,-0.008096343837678432,0.9987829327583313,
25796,-0.0007227671449072659,-0.006053077522665262,1.0008325576782227,
25896,0.0010499295312911272,-0.0061173103749752045,0.9999359250068665,
25996,-0.002454632893204689,-0.005303545854985714,0.9986245632171631,
26096,-0.0005301454220898449,-0.005479216109961271,0.9997226595878601,
26196,-0.000176900444785133,-0.008671749383211136,0.9992954134941101,
26296,-0.0003589282860048115,-0.005460074637085199,0.9990563988685608,
26396,-0.0007591979228891432,-0.00648788595572114,0.9986895322799683,
26496,-0.0003394309605937451,-0.00855645164847374,1.001118779182434,
26596,-0.002248544478788972,-0.006826617754995823,0.9992503523826599,
26696,0.00014249744708649814,-0.00508137047290802,0.9996970891952515,
26796,-0.0011060883989557624,-0.005393892992287874,1.0000321865081787,
26896,0.000831645040307194,-0.004419473931193352,0.9999063611030579,
26996,-0.0004637513484340161,-0.0061837900429964066,1.0007319450378418,
27096,0.00034088449319824576,-0.0051073189824819565,1.000551462173462,
27196,-0.002007558709010482,-0.005312400404363871,0.9995976090431213,
27296,0.0008121181163005531,-0.00479901721701026,1.0006033182144165,
27396,-0.00022843541228212416,-0.004890070296823978,1.0009396076202393,
27496,-0.0008781671058386564,-0.006590201519429684,0.9997786283493042,
91076,-0.0013008323730900884,0.0009925586637109518,0.9970415830612183,
91176,-0.0013753885868936777,0.0024209958501160145,0.996936559677124,
91276,-0.0007426761440001428,0.0008297209278680384,0.9962799549102783,
91376,-0.0020626354962587357,0.0022436873987317085,0.9975383877754211,
91476,-0.0035455897450447083,0.002028621267527342,0.999293863773346,
91576,-0.0022408810909837484,-0.00012315977073740214,0.99873948097229,
91676,-0.004611488431692123,0.0001493935997132212,0.9974494576454163,
91776,-0.004530660808086395,0.0015567290829494596,0.9964234828948975,
91876,-0.0009534986456856132,0.0005584412137977779,0.9980111122131348,
91976,-0.0031366245821118355,0.00020926567958667874,0.9984551072120667,
92076,-0.0002568487834651023,0.002159696538001299,0.9984958171844482,
92176,-0.0017722711199894547,0.001415121485479176,0.9967595338821411,
92276,-0.0032048437278717756,0.0012957047438248992,0.9984824061393738,
92376,-0.0035465664695948362,0.0011993373045697808,0.9955291748046875,
92476,-0.0021291766315698624,0.001740806270390749,0.9969169497489929,
92576,-0.002856083447113633,0.00014152363291941583,0.9990029335021973,
92676,-0.002513328567147255,0.0006403164588846266,0.997508704662323,
92776,-0.002219249727204442,0.0016579767689108849,0.9980083107948303,
92876,-0.00291151343844831,-0.001010420499369502,0.9977083206176758,
92976,-0.0021071394439786673,6.368431058945134e-05,0.9983998537063599,
93076,-0.0035128132440149784,0.0010029140394181013,0.9980983734130859,
93176,-0.0019831855315715075,0.004570107441395521,0.9977099895477295,
93276,-0.0035691612865775824,-0.01006902102380991,0.9641262292861938,
93376,-0.01968301646411419,-0.03400055691599846,0.9156800508499146,
93476,-0.034221917390823364,0.028282327577471733,1.0250661373138428,
93576,-0.03398263826966286,-0.02363559976220131,0.956767201423645,
93676,-0.028376687318086624,-0.000595217861700803,0.9965874552726746,
93776,-0.005249652545899153,0.004748644307255745,0.997793972492218,
93876,0.00019220425747334957,0.038954976946115494,0.9962887167930603,
93976,0.024990065023303032,0.03895002231001854,1.0550189018249512,
94076,0.003356765955686569,0.0397619865834713,1.0357369184494019,
94176,-0.027239741757512093,0.007403549272567034,1.060308575630188,
94276,0.024443408474326134,0.05781829357147217,1.0257571935653687,
94376,0.011706779710948467,0.051783476024866104,0.9886378645896912,
94476,0.030440211296081543,0.0222957581281662,0.9663097262382507,
94576,-0.004732645116746426,0.022336343303322792,0.9844393730163574,
94676,-0.000997320981696248,0.011903712525963783,1.0049999952316284,
94776,0.015381749719381332,0.029880240559577942,1.0283504724502563,
94876,-0.00022404569608625025,0.007314856629818678,1.071000337600708,
94976,-0.0016531699802726507,-0.010445031337440014,1.0329095125198364,
95076,-0.007947737351059914,-0.0074543338268995285,1.0232418775558472,
95176,0.014250295236706734,0.0178325604647398,1.019046664237976,
95276,-0.01420426182448864,0.011019480414688587,1.0358349084854126,
95376,-0.022158201783895493,-0.011211881414055824,1.0687345266342163,
95476,0.0663377195596695,0.06586688756942749,0.9285913109779358,
95576,0.05088920518755913,0.03955468907952309,0.9365667700767517,
95676,0.007197457831352949,0.08504106104373932,0.9454261660575867,
95776,0.0069215549156069756,0.0359070710837841,0.9783900380134583,
95876,0.011892280541360378,0.05435808375477791,0.9704576134681702,
95976,0.010935662314295769,0.02008989080786705,0.9866659641265869,
96076,-0.03291717544198036,-0.026754971593618393,1.0091054439544678,
96176,-0.029333369806408882,-0.009845191612839699,1.0025289058685303,
96276,-0.00044515312765724957,-0.023697858676314354,1.0142335891723633,
96376,0.02722213789820671,0.04111621901392937,0.9857900142669678,
96476,0.021470602601766586,0.027224455028772354,1.0158443450927734,
96576,-0.003282844088971615,-0.006085364613682032,0.9850842952728271,
96676,0.01362721249461174,0.016153782606124878,1.0059150457382202,
96776,-0.009195712395012379,0.004107447806745768,0.9875972867012024,
96876,0.02290099672973156,0.03540971130132675,0.9827941656112671,
96976,0.014863206073641777,0.012258520349860191,0.9787952899932861,
97076,0.02376815304160118,0.011911832727491856,1.0043612718582153,
97176,-0.009660501033067703,0.005411246791481972,1.0125051736831665,
97276,0.021623043343424797,0.03072311542928219,0.990788996219635,
97376,-0.019971324130892754,0.0045487782917916775,1.0421192646026611,
97476,-0.008486579172313213,0.02120446041226387,1.0328949689865112,
97576,-0.01696331426501274,0.03213968127965927,1.0149391889572144,
97676,-0.008978287689387798,0.023206235840916634,0.9998992085456848,
97776,0.0716802328824997,0.1519574075937271,0.9527789354324341,
97876,0.012892408296465874,-0.012890058569610119,1.0015742778778076,
97976,-0.01395284105092287,0.008903227746486664,1.0011634826660156,
98076,0.019588463008403778,0.04980756714940071,0.9726217985153198,
98176,0.007784086745232344,0.055974431335926056,0.9795470237731934,
98276,-0.0034918352030217648,0.04645930603146553,0.9945588111877441,
98376,0.002520359819754958,-0.0061209253035485744,0.9880046844482422,
98476,0.014440899714827538,0.03663565218448639,0.9642559289932251,
98576,0.0039434595964848995,0.09076990932226181,1.0209400653839111,
98676,0.05651457980275154,0.09133126586675644,0.952985942363739,
98776,0.036385614424943924,0.05042393505573273,0.9826266169548035,
98876,0.021754013374447823,0.00017867727729026228,0.9757189750671387,
98976,0.014956897124648094,-0.0024193900171667337,1.0132249593734741,
99076,-0.01389359962195158,-0.008570035919547081,1.0391135215759277,
99176,-0.015259986743330956,-0.03391321748495102,1.0483256578445435,
99276,-0.017598334699869156,0.02303176373243332,1.0271518230438232,
99376,0.013293766416609287,0.04851679503917694,0.9733520746231079,
99476,0.033439528197050095,0.028240270912647247,0.942470908164978,
99576,0.01523435115814209,0.021580642089247704,0.9705567359924316,
99676,-0.001472526346333325,-0.018281519412994385,0.9905042052268982,
99776,-0.02017033100128174,0.004265183582901955,1.003822684288025,
99876,0.006710325367748737,0.01906738243997097,0.9883084297180176,
99976,-0.014495732262730598,0.01480396743863821,0.989231288433075,
100076,0.006156370043754578,0.017173128202557564,0.9991850256919861,
100176,0.009028312750160694,0.02178383804857731,1.019023060798645,
100276,0.028797542676329613,0.02063285931944847,0.9930726289749146,
100376,0.00455458415672183,0.05657168850302696,1.000366449356079,
100476,0.05111686885356903,0.05144503712654114,0.9744731783866882,
100576,0.001799771678633988,0.02966134622693062,1.0013221502304077,
100676,-0.006361663807183504,0.03903050348162651,1.002517819404602,
100776,0.003573628142476082,0.02866264246404171,0.9897225499153137,
100876,0.009616360068321228,0.033741552382707596,0.9746055603027344,
100976,0.02350827492773533,0.13221310079097748,0.9921987652778625,
101076,-0.000500828551594168,0.03033229522407055,0.98478102684021,
101176,0.02772175706923008,0.02146308682858944,0.9682692885398865,
101276,0.017298216000199318,0.039786167442798615,0.9950137734413147,
101376,0.0029048214200884104,0.042977165430784225,1.0164985656738281,
101476,0.01198565773665905,0.05648984760046005,0.994234025478363,
101576,0.010738593526184559,0.044234830886125565,0.9897474646568298,
101676,0.015350726433098316,0.06590922176837921,0.9797612428665161,
101776,0.0021352367475628853,0.05160784348845482,1.0013508796691895,
101876,0.00217322981916368,0.09426899999380112,1.0076558589935303,
101976,0.003272212343290448,0.03641645610332489,1.003267765045166,
102076,-0.009882801212370396,0.04492466524243355,1.0027505159378052,
102176,0.004680657759308815,0.07541380822658539,0.9810266494750977,
102276,-0.008154147304594517,0.023366013541817665,0.9841259121894836,
102376,-0.016154007986187935,0.01883140206336975,0.9998910427093506,
102476,-0.009474044665694237,0.028090106323361397,1.013569951057434,
102576,0.006470510270446539,0.02574058435857296,0.9872989058494568,
102676,0.013573848642408848,0.058051373809576035,0.9869218468666077,
102776,-5.966356548015028e-05,-0.009149672463536263,1.0165296792984009,
102876,0.0073410444892942905,0.05422227829694748,0.941587507724762,
102976,0.007490742951631546,-0.011677631177008152,1.0087308883666992,
103076,-0.02295439876616001,-0.009059221483767033,1.0097601413726807,
103176,0.012929797172546387,0.024755392223596573,1.012791633605957,
103276,-0.011531993746757507,0.03071204014122486,0.9970024824142456,
103376,-0.002485455246642232,0.011072690598666668,0.9959558844566345,
103476,-0.014676006510853767,-0.004242601804435253,1.0254548788070679,
103576,0.026066340506076813,0.047985248267650604,0.9520151019096375,
103676,0.026318972930312157,0.05754740536212921,0.9669816493988037,
103776,0.01318628154695034,0.03869936242699623,0.9973514676094055,
103876,-0.011531715281307697,0.029796339571475983,0.9759308099746704,
103976,-0.01669178158044815,0.016929825767874718,1.00470769405365,
104076,-0.009543404914438725,0.03572552651166916,1.000077724456787,
104176,-0.008975760079920292,0.0074785505421459675,1.0305447578430176,
104276,0.028983665630221367,0.0930069088935852,0.9737406373023987,
104376,0.007984409108757973,0.04138490557670593,1.007065773010254,
104476,0.010673117823898792,0.015942011028528214,0.9982666373252869,
104576,0.010765660554170609,0.052682675421237946,0.9618857502937317,
104676,0.024432172998785973,0.017642909660935402,0.9791539311408997,
104776,0.0029215319082140923,0.061982449144124985,0.9778258800506592,
104876,0.028580335900187492,0.03354310244321823,0.9785205721855164,
104976,-0.008424713276326656,0.05804334953427315,0.9943503141403198,
105076,0.01720365881919861,0.019662046805024147,0.9979807138442993,
105176,-0.004277388099581003,0.07391620427370071,0.9730864763259888,
105276,-0.006602834910154343,0.022311611101031303,0.9988253712654114,
105376,-0.014887251891195774,0.03562198206782341,1.0159708261489868,
105476,0.019342344254255295,0.03607526794075966,0.9765080213546753,
105576,-0.030301101505756378,-0.009117191657423973,0.9816356897354126,
105676,-0.012016684748232365,0.04261502996087074,1.0116699934005737,
105776,0.009505902417004108,0.05028872936964035,0.984132707118988,
105876,-0.0011570639908313751,0.028614111244678497,0.9731687307357788,
105976,0.02197197452187538,0.05273221433162689,1.0464246273040771,
106076,0.03315899893641472,0.04831187054514885,0.9621576070785522,
106176,0.017224689945578575,0.024784428998827934,0.9617531299591064,
106276,0.002085554413497448,0.022474221885204315,0.9817414879798889,
106376,-0.002797748427838087,-0.039144422858953476,1.0254660844802856,
106476,-0.022946448996663094,0.045517951250076294,1.0135600566864014,
106576,-0.0011518836254253983,0.06235309690237045,0.9938303828239441,
106676,0.023139869794249535,0.06303954124450684,0.983837902545929,
106776,0.04302061349153519,0.08100205659866333,0.9743348956108093,
106876,0.021124543622136116,0.0643937811255455,0.9911493062973022,
106976,-0.014767726883292198,0.06699256598949432,0.9988436102867126,
107076,-0.03132709488272667,0.03267908841371536,0.9725048542022705,
107176,0.014599952846765518,0.016760781407356262,1.004806399345398,
107276,-0.023311372846364975,-0.01375558227300644,1.0258774757385254,
107376,0.02009604126214981,0.03630611672997475,0.9869534969329834,
107476,-0.001412679674103856,0.05512639135122299,1.035257339477539,
107576,-0.006075000390410423,0.037803083658218384,1.014825463294983,
107676,-0.016263701021671295,0.026086246594786644,0.9932249784469604,
107776,-0.0035730809904634953,0.04202070087194443,0.9876755475997925,
107876,-0.013669522479176521,-0.024844659492373466,1.0399441719055176,
107976,-0.012946492061018944,0.02660534717142582,1.0144073963165283,
108076,-0.017146281898021698,-0.0038637330289930105,1.0142253637313843,
108176,0.001686667907051742,0.01768542267382145,1.014940619468689,
108276,0.0029470836743712425,0.03396007418632507,1.0199108123779297,
108376,-0.014102058485150337,0.06552862375974655,1.0184420347213745,
108476,-0.007907947525382042,0.038458287715911865,0.9937576055526733,
108576,0.009316195733845234,-2.5402689061593264e-05,0.995162844657898,
108676,-0.009377952665090561,0.023184580728411674,0.9879644513130188,
108776,0.012322161346673965,0.005574758164584637,0.9904592633247375,
108876,0.006137830670922995,0.047596365213394165,0.9746875166893005,
108976,-0.012594950385391712,0.01010832842439413,1.0222880840301514,
109076,-0.02593373693525791,-0.04013749212026596,1.060420274734497,
109176,0.028579071164131165,0.020348161458969116,0.9624097943305969,
109276,-0.0011208845535293221,0.07523613423109055,0.9720100164413452,
109376,-0.012877194210886955,-0.006142457015812397,1.030487298965454,
109476,0.0017025643028318882,0.03221353515982628,0.9918931126594543,
109576,0.002919522812590003,0.007755143567919731,0.9969668984413147,
109676,0.03131994232535362,0.08246137201786041,0.9778274893760681,
109776,0.008904696442186832,-0.0014303738716989756,0.9890796542167664,
109876,-0.0031396185513585806,0.010572090744972229,1.0176926851272583,
109976,0.012999053113162518,0.020239319652318954,0.9833409786224365,
110076,-0.02098374255001545,-0.018202409148216248,1.0227510929107666,
110176,0.01773431897163391,0.02132822573184967,0.9641226530075073,
110276,0.011671208776533604,0.054690882563591,0.9771751165390015,
110376,-0.01292000524699688,0.04617155343294144,1.0156501531600952,
110476,0.0015945038758218288,0.034511495381593704,1.0202330350875854,
110576,0.0281370859593153,0.040779463946819305,0.9654961228370667,
110676,0.013470887206494808,0.06634622812271118,0.9688001275062561,
110776,-0.005653006490319967,0.0060729715041816235,1.0528044700622559,
110876,-0.019833270460367203,0.028084995225071907,1.0056301355361938,
110976,0.014071746729314327,0.025626014918088913,0.9777405261993408,
111076,0.033977676182985306,0.03564872220158577,0.9873562455177307,
111176,-0.0022358866408467293,0.056368667632341385,0.9961927533149719,
111276,0.009494811296463013,0.054435815662145615,0.9907504916191101,
111376,0.04034065082669258,0.06913704425096512,0.9654367566108704,
111476,0.03410402685403824,0.07011131197214127,0.9700705409049988,
111576,0.01694251038134098,0.013373826630413532,1.0112648010253906,
111676,-0.00012619687186088413,0.023116661235690117,1.000578761100769,
111776,0.0072764744982123375,0.0155215784907341,0.9965278506278992,
111876,0.009961993433535099,0.03916957974433899,1.0006440877914429,
111976,0.010272053070366383,0.014982708729803562,0.9920482635498047,
112076,0.01753479614853859,0.010197869502007961,0.9733284115791321,
112176,0.0200937669724226,0.016509557142853737,0.9797759056091309,
112276,0.00927439983934164,0.023993264883756638,0.994607150554657,
112376,0.014484710991382599,0.0279882550239563,0.9890283346176147,
112476,-0.0035168048925697803,0.01645628921687603,1.0142372846603394,
112576,-0.003478292841464281,0.05480083078145981,1.010379672050476,
112676,0.016265355050563812,0.029431261122226715,0.9935188293457031,
112776,-0.020091978833079338,0.011380991898477077,1.035361409187317,
112876,0.026648782193660736,0.04120882600545883,1.0016745328903198,
112976,-0.0025222611147910357,0.023739345371723175,1.0143470764160156,
113076,-0.025686688721179962,-0.021939054131507874,1.0203453302383423,
113176,0.009276122786104679,0.03690624237060547,0.9813669919967651,
113276,0.009732227772474289,0.03479580208659172,0.9857684969902039,
113376,-0.008089312352240086,0.012643546797335148,1.0300276279449463,
113476,0.01577642932534218,0.001658230321481824,0.9825887084007263,
113576,-0.003092952072620392,0.034215524792671204,0.9670717716217041,
113676,-0.003964078146964312,0.028899258002638817,1.0008792877197266,
113776,-0.012526768259704113,0.02619142457842827,1.00740385055542,
113876,0.00882934220135212,0.013994986191391945,1.0075078010559082,
113976,0.011712435632944107,0.029226716607809067,1.0027761459350586,
114076,-0.0034621080849319696,0.03300910443067551,0.9847074151039124,
114176,0.0027674981392920017,0.013303864747285843,1.0206708908081055,
114276,0.02173718623816967,0.025575658306479454,0.9663234949111938,
114376,-0.01245119422674179,0.06810619682073593,0.9919833540916443,
114476,-0.0017921609105542302,0.01565975323319435,1.0094621181488037,
114576,0.00331503851339221,0.046623069792985916,0.9554147124290466,
114676,0.002065208274871111,0.03824282065033913,0.9947898983955383,
114776,0.0040604956448078156,0.02657892182469368,1.0183274745941162,
114876,0.019716719165444374,0.05129551887512207,0.9854441285133362,
114976,0.015927813947200775,0.02880162186920643,0.9830887317657471,
115076,0.01712959259748459,0.025699546560645103,0.9773213267326355,
115176,0.00925772450864315,0.06702447682619095,0.9806606769561768,
115276,-0.009323188103735447,0.017106270417571068,1.0146924257278442,
115376,-0.00153732905164361,-0.016448689624667168,1.0302196741104126,
115476,0.02792481891810894,0.052533674985170364,0.9726905226707458,
115576,0.011569582857191563,0.030117690563201904,0.9870784282684326,
115676,-0.0018945473711937666,0.02785494737327099,0.9805433750152588,
115776,0.02380179986357689,0.024478096514940262,1.001314401626587,
115876,-0.012935384176671505,0.015480903908610344,1.0040682554244995,
115976,-0.010176138021051884,0.01002355944365263,1.020193338394165,
116076,-0.013614663854241371,0.03870188444852829,1.008939504623413,
116176,-0.001268823049031198,0.01407285500317812,1.0012931823730469,
116276,0.0045350901782512665,0.010214983485639095,1.0131924152374268,
116376,-0.013709986582398415,-0.032554615288972855,1.0431501865386963,
116476,-0.03711024671792984,0.009873593226075172,1.0053285360336304,
116576,-0.011927096173167229,0.042931098490953445,0.9607048630714417,
116676,-0.0010755556868389249,0.021484145894646645,1.0008207559585571,
116776,0.001144448178820312,0.03388223797082901,1.0149832963943481,
116876,-0.0017960452241823077,0.013915584422647953,1.0367894172668457,
116976,0.0015122359618544579,0.02257462590932846,1.0377678871154785,
117076,0.0031366541516035795,0.020226668566465378,1.0128865242004395,
117176,-0.0019639674574136734,0.03752182051539421,0.9930834174156189,
117276,0.01858651265501976,0.009192480705678463,0.9894120693206787,
117376,-0.017254045233130455,0.00146467424929142,1.0050548315048218,
117476,0.013681603595614433,0.040860600769519806,0.9764274954795837,
117576,-0.009008715860545635,0.01040102168917656,1.0185507535934448,
117676,-0.008781271055340767,0.035734593868255615,0.975501537322998,
117776,0.012133967131376266,0.037578947842121124,1.0171689987182617,
117876,-0.019082987681031227,-0.023298386484384537,1.0138717889785767,
117976,0.015090486034750938,0.08036535233259201,0.9760419726371765,
118076,-0.0015754938358440995,0.010001166723668575,1.0108225345611572,
118176,-0.008602011017501354,0.007612154353410006,1.0150865316390991,
118276,-0.008810949511826038,0.016558241099119186,1.0085525512695312,
118376,-0.035759132355451584,-0.029719937592744827,1.0401555299758911,
118476,-0.024783041328191757,-0.026803886517882347,1.0253533124923706,
118576,0.0016602686373516917,0.026778502389788628,0.9834778904914856,
118676,0.007841658778488636,0.01917082630097866,0.989514946937561,
118776,0.004841951187700033,0.048720866441726685,0.9814256429672241,
118876,-0.0009985370561480522,0.01772613264620304,1.002312183380127,
118976,0.025417478755116463,0.03749175742268562,0.9713181257247925,
119076,-0.006877876818180084,0.03074381686747074,0.9907354712486267,
119176,-0.026745107024908066,-0.043107204139232635,1.0412410497665405,
119276,-0.0035479958169162273,0.034366708248853683,0.9982337355613708,
119376,-0.005827669519931078,0.027777735143899918,1.0157843828201294,
119476,-0.0035514039918780327,-0.0012297286884859204,1.0160852670669556,
119576,-0.0075110867619514465,-0.012155806645751,1.001975178718567,
119676,-0.007971005514264107,-0.0012106020003557205,1.0184565782546997,
119776,0.0035144744906574488,0.07229720056056976,0.9617278575897217,
119876,-0.022305728867650032,-0.004855811595916748,1.011828064918518,
119976,0.012535963207483292,0.049195677042007446,0.9851186275482178,
120076,-0.00089367909822613,0.032987240701913834,0.991548478603363,
120176,0.013430647552013397,0.051814768463373184,0.9845296740531921,
120276,0.018883034586906433,0.008631580509245396,1.0106853246688843,
120376,-0.027398914098739624,0.00962801743298769,1.0502411127090454,
120476,-0.00677310349419713,0.022948604077100754,1.0175353288650513,
120576,-0.02579638734459877,-0.006095405668020248,1.0296266078948975,
120676,-0.014189545065164566,-0.012722047977149487,1.0414068698883057,
120776,0.008772851899266243,0.029782474040985107,0.9712305068969727,
120876,0.014092229306697845,0.019795982167124748,0.982657253742218,
120976,-0.0014353820588439703,0.030981162562966347,0.9943689703941345,
121076,0.010273341089487076,0.03635243698954582,1.0005685091018677,
121176,0.015486611984670162,0.02840239927172661,0.996063232421875,
121276,-0.010186265222728252,-0.01636369153857231,1.0487935543060303,
121376,-0.009710568934679031,0.005871872883290052,0.9672577977180481,
121476,0.0005147461779415607,-0.003211657050997019,0.998907208442688,
121576,-0.0023299865424633026,0.02114010974764824,0.9802635908126831,
121676,0.010413496755063534,0.03487679362297058,0.963600218296051,
121776,0.003782148938626051,0.029289495199918747,0.9742609858512878,
121876,0.016276979818940163,0.030030937865376472,0.9790482521057129,
121976,-0.013814296573400497,0.03342130780220032,0.9765485525131226,
122076,0.009391654282808304,0.048348695039749146,0.974807858467102,
122176,0.0073783062398433685,0.04301047325134277,0.9859980344772339,
122276,0.018324309960007668,0.013588786125183105,0.9904956817626953,
122376,0.008749546483159065,0.038900479674339294,0.9827907085418701,
122476,-0.0026202737353742123,0.06549497693777084,0.9973387718200684,
122576,0.004503453616052866,0.027854833751916885,0.9870691895484924,
122676,-0.018022045493125916,0.03152772784233093,1.0147972106933594,
122776,-0.0010528290877118707,0.01527586579322815,0.9980524182319641,
122876,0.009427404962480068,0.03778141364455223,0.9779871702194214,
122976,-0.0379471629858017,0.0029047818388789892,1.0616544485092163,
123076,-0.009533166885375977,0.006343221291899681,1.0182888507843018,
123176,-0.030783770605921745,-0.03781789541244507,1.0432226657867432,
123276,-0.013786673545837402,0.009304646402597427,1.026117205619812,
123376,0.05140077322721481,0.02324908971786499,0.9680781364440918,
123476,0.002186916768550873,0.030655179172754288,1.0164580345153809,
123576,0.005161025561392307,0.0837939903140068,0.9882385730743408,
123676,0.029219642281532288,0.06400313228368759,0.9562336206436157,
123776,-0.006283436436206102,0.030580632388591766,0.9874463677406311,
123876,0.018785523250699043,0.011453266255557537,0.9956904649734497,
123976,0.02268430031836033,0.07691864669322968,0.987936794757843,
124076,0.004715221934020519,0.06013749539852142,0.9821196794509888,
124176,-0.00709508266299963,-0.004570582881569862,1.0163600444793701,
124276,0.0128146568313241,0.05767553672194481,0.9904649257659912,
124376,-0.01476813293993473,0.01367725245654583,1.0074700117111206,
124476,0.01736670918762684,0.034945812076330185,0.9850156903266907,
124576,-0.00558290584012866,0.018788693472743034,1.0133795738220215,
124676,0.00550865801051259,0.03566555306315422,0.985568642616272,
124776,0.011337492614984512,0.024768641218543053,0.997252345085144,
124876,-0.009398207999765873,0.0024501194711774588,1.0240411758422852,
124976,0.01998072676360607,0.031907327473163605,0.982093334197998,
125076,-0.040847912430763245,-0.010476530529558659,1.0385949611663818,
125176,0.003621006617322564,0.021611856296658516,1.0039962530136108,
125276,0.022113701328635216,0.07255114614963531,0.9787068963050842,
125376,0.013612441718578339,0.03958370164036751,0.9967797994613647,
125476,0.004023707006126642,0.05278930068016052,0.9864164590835571,
125576,0.0018211593851447105,0.027137482538819313,0.9842286109924316,
125676,0.002076589735224843,0.049488019198179245,0.9728167653083801,
125776,0.012939441949129105,0.022394249215722084,0.9681698083877563,
125876,0.020064618438482285,0.050981923937797546,0.988518238067627,
125976,-0.016825668513774872,0.021752145141363144,1.0002620220184326,
126076,0.0003159285697620362,0.05925852060317993,0.9895782470703125,
126176,0.017363158985972404,0.03305560350418091,0.9961093068122864,
126276,0.011510567739605904,0.06305557489395142,0.9805545806884766,
126376,0.005484691355377436,0.033348582684993744,1.008361577987671,
126476,0.0026211796794086695,0.07861821353435516,0.9726694226264954,
126576,0.014104567468166351,0.03666263073682785,0.9728116393089294,
126676,-0.0294952355325222,0.002169627696275711,1.0189168453216553,
126776,0.02426009625196457,0.03977663069963455,0.9795408248901367,
126876,0.0026613487862050533,0.052413180470466614,0.9700376987457275,
126976,-0.015205292962491512,0.009660678915679455,1.0135481357574463,
127076,-0.028326721861958504,0.016118941828608513,1.0182920694351196,
127176,-0.012499412521719933,-0.01676923967897892,1.047608494758606,
127276,-0.023263324052095413,0.01226836908608675,1.0529178380966187,
127376,0.012444221414625645,0.03902139514684677,0.9639729857444763,
127476,0.014711045660078526,-0.008495171554386616,1.016618013381958,
127576,-0.02338351495563984,-0.011418772861361504,1.0352513790130615,
127676,0.008121312595903873,0.0031648771837353706,1.0056593418121338,
127776,-0.0015255960170179605,0.02306922897696495,1.0041725635528564,
127876,0.013183454051613808,0.04482130706310272,0.9594016075134277,
127976,-0.04037591814994812,0.0384325310587883,1.0139514207839966,
128076,-0.01196744292974472,0.023224562406539917,1.0188121795654297,
128176,0.015839889645576477,0.03121359646320343,0.9828032851219177,
128276,-0.006432995665818453,0.0169026181101799,0.9990552067756653,
128376,-0.014040160924196243,0.026333363726735115,0.993377685546875,
128476,-0.02663639932870865,-0.0025507635436952114,1.0211125612258911,
128576,0.023994848132133484,0.025772271677851677,0.9726992845535278,
128676,-0.01324448361992836,0.060059621930122375,0.9970918297767639,
128776,-0.01989397592842579,0.013932550325989723,1.0090875625610352,
128876,-0.033080607652664185,-0.04661738872528076,1.0215346813201904,
128976,-0.016661738976836205,0.02545332908630371,0.981071949005127,
129076,-0.0075993104837834835,0.04247742518782616,0.9949542284011841,
129176,-0.021790098398923874,0.006715720985084772,1.0029488801956177,
129276,-0.026530498638749123,0.011125934310257435,1.049243688583374,
129376,-0.013088522478938103,0.009421540424227715,1.021581768989563,
129476,0.0071405889466404915,0.056522127240896225,0.9717303514480591,
129576,-0.03399579972028732,0.015490512363612652,1.0056562423706055,
129676,0.00274175894446671,-0.0042308056727051735,1.0121279954910278,
129776,0.014581737108528614,0.030883383005857468,1.0075796842575073,
129876,0.0051475390791893005,0.057061322033405304,0.9398396015167236,
129976,-0.018720421940088272,-0.032842375338077545,1.0386958122253418,
130076,-0.0010604693088680506,0.03561370447278023,1.0017342567443848,
130176,-0.006329543888568878,0.03768438845872879,0.9939097762107849,
130276,-0.008317363448441029,0.0104790348559618,1.013313889503479,
130376,-0.0218360498547554,-0.027191217988729477,1.0360604524612427,
130476,-0.03467952087521553,0.01057734526693821,0.9946457743644714,
130576,-0.012005466967821121,0.015314399264752865,1.0130192041397095,
130676,-0.05091976374387741,0.0011109620099887252,1.008838176727295,
130776,-0.005680863745510578,0.009376691654324532,1.0019381046295166,
130876,0.0026804597582668066,0.04677308350801468,0.9919763803482056,
130976,0.009588519111275673,0.015495862811803818,1.0097814798355103,
131076,-0.021395748481154442,0.02886134199798107,0.9879031777381897,
131176,-0.010046375915408134,0.009296085685491562,1.0370126962661743,
131276,-0.0017420926596969366,0.021530237048864365,1.000327229499817,
131376,-0.002609762130305171,-0.012531918473541737,1.021938681602478,
131476,-0.018957747146487236,0.06188341602683067,1.0081429481506348,
131576,-0.01801723800599575,-0.012223268859088421,1.016256332397461,
131676,0.011395049281418324,0.030354689806699753,1.0042455196380615,
131776,-0.005364567041397095,0.022632664069533348,0.9998447299003601,
131876,0.02973726950585842,0.07106509804725647,0.9635393619537354,
131976,-0.014863650314509869,-0.00015435875684488565,1.047662377357483,
132076,0.009223724715411663,0.045707207173109055,1.0073519945144653,
132176,-0.0009200740023516119,0.015756776556372643,1.027835726737976,
132276,-0.023093512281775475,0.039324142038822174,1.0055280923843384,
132376,-0.034236978739500046,-0.02249045856297016,1.0619711875915527,
132476,0.03795110434293747,0.039372336119413376,0.9512918591499329,
132576,-0.0038728308863937855,0.008549978025257587,0.9855903387069702,
132676,-0.006448018830269575,0.01779308170080185,1.01458740234375,
132776,0.008354268968105316,0.02384914644062519,1.006312370300293,
132876,-0.0028409112710505724,0.013162846677005291,1.0216253995895386,
132976,0.004574902355670929,0.03539327159523964,0.9885056018829346,
133076,-0.005871823988854885,0.01743987202644348,1.0044364929199219,
133176,-0.023098206147551537,0.03998292237520218,1.0393425226211548,
133276,-0.0028612641617655754,0.02794044278562069,1.0223679542541504,
133376,0.02414259873330593,0.053836360573768616,1.0009307861328125,
133476,0.009619376622140408,0.04406945779919624,0.9880112409591675,
133576,-0.0029432126320898533,0.006625423673540354,0.9828411340713501,
133676,-0.01019387599080801,0.05134458839893341,0.9907799959182739,
133776,-0.00017793968436308205,0.0267886184155941,0.9935212731361389,
133876,0.01011226698756218,0.02921454794704914,0.9933845400810242,
133976,-0.0038928415160626173,0.031737055629491806,0.9895037412643433,
134076,-0.019556444138288498,0.00938369520008564,0.9938108325004578,
134176,-0.0006492910324595869,0.022342262789607048,1.0152931213378906,
134276,0.008091533556580544,0.04854375869035721,0.9658312201499939,
134376,0.014602943323552608,0.03455857187509537,0.9780529141426086,
134476,-0.005008466076105833,0.04124626889824867,0.9618012309074402,
134576,-0.0002633270632941276,0.021466104313731194,0.9772989153862,
134676,0.008061365224421024,0.018310774117708206,0.9833952784538269,
134776,0.025030847638845444,0.03799046576023102,0.9689796566963196,
134876,-0.012612187303602695,0.03473014384508133,1.0377917289733887,
134976,0.04102377966046333,0.06274233758449554,0.9643709659576416,
135076,0.007152209524065256,0.033516354858875275,0.9798769950866699,
135176,0.00984179973602295,0.04853343591094017,0.9815962314605713,
135276,0.02335168421268463,0.04325704649090767,0.9969431757926941,
135376,0.011310210451483727,0.03877889737486839,0.9852635860443115,
135476,-0.0031645263079553843,0.03260967507958412,1.017385721206665,
135576,0.017905496060848236,0.021657006815075874,0.9960359334945679,
135676,-0.006796886213123798,0.019700463861227036,0.9831945300102234,
135776,0.011298855766654015,0.01000953558832407,0.9704270958900452,
135876,-0.015660244971513748,0.0013239699183031917,0.9966222643852234,
135976,0.0017364559462293983,0.03596298769116402,0.9862127900123596,
136076,-0.0101016191765666,0.04503268375992775,0.9754948616027832,
136176,0.031493574380874634,0.016044538468122482,0.9813942909240723,
136276,0.0011694381246343255,-0.002489926526322961,0.9901493787765503,
136376,-0.014970595017075539,0.030016306787729263,1.0270788669586182,
136476,-0.011050424538552761,0.0330771841108799,1.0072555541992188,
136576,-0.003562955418601632,0.02160012349486351,0.9814274311065674,
136676,-0.0001903748925542459,0.03422434628009796,0.9964560866355896,
136776,0.01170573104172945,0.06556262075901031,1.0046018362045288,
136876,-0.0006182455108501017,0.017827387899160385,0.9994665384292603,
136976,-0.01661759801208973,0.006954860407859087,1.006972312927246,
137076,0.012400547973811626,0.005496938247233629,0.9949072003364563,
137176,0.0112979207187891,0.05915849283337593,0.9599044919013977,
137276,0.00455837557092309,0.046785082668066025,0.9861485362052917,
137376,0.01107816956937313,0.04770347848534584,0.9919276833534241,
137476,0.002338541904464364,0.033711399883031845,0.9982123970985413,
137576,-0.02556145191192627,0.013077503070235252,1.0117918252944946,
137676,0.013731082901358604,0.042832911014556885,0.9888420701026917,
137776,-0.0048294030129909515,0.013613058254122734,1.034128189086914,
137876,0.002802811097353697,0.029820650815963745,0.9966520667076111,
137976,0.003864677855744958,0.019342923536896706,1.029109001159668,
138076,0.005810200702399015,0.0204029381275177,0.9929124116897583,
138176,0.022238895297050476,-0.0010613886406645179,1.0235077142715454,
138276,-0.011470907367765903,0.0027417601086199284,1.0286237001419067,
138376,0.013197106309235096,0.0313263013958931,0.9992785453796387,
138476,0.0026438648346811533,0.030578168109059334,0.9904122352600098,
138576,-0.018604526296257973,0.0020702332258224487,1.012126088142395,
138676,0.015879815444350243,0.02011273242533207,1.0036557912826538,
138776,0.012644920498132706,0.057792458683252335,0.9780497550964355,
138876,-0.00365335401147604,0.013368824496865273,1.0095949172973633,
138976,-0.004579066298902035,0.008724972605705261,0.9933382868766785,
139076,0.011399471201002598,0.02338739112019539,0.9972845911979675,
139176,-0.008731231093406677,0.02757660672068596,0.9840387105941772,
139276,0.004422715399414301,0.02313077449798584,1.0207151174545288,
139376,-0.008466308005154133,0.03436684235930443,1.0215941667556763,
139476,-0.008351575583219528,-0.011956973001360893,1.0221824645996094,
139576,0.005938394460827112,0.038641270250082016,0.9736548662185669,
139676,0.0010825296631082892,0.02611156739294529,0.9864600896835327,
139776,-0.010973495431244373,0.04627399891614914,0.9960443377494812,
139876,0.011812228709459305,0.013495132327079773,1.0022028684616089,
139976,-0.008229817263782024,0.03372986242175102,1.0302629470825195,
140076,-0.013151197694242,0.024034550413489342,0.9778195023536682,
140176,-0.009181858971714973,0.0821254551410675,1.0037777423858643,
140276,0.011982662603259087,0.026404840871691704,1.00223970413208,
140376,0.005723245907574892,0.053506895899772644,0.9866185188293457,
140476,-0.028645532205700874,-0.006929369643330574,0.9978934526443481,
140576,0.008814425207674503,0.04244903102517128,1.0079442262649536,
140676,-0.004075202625244856,0.029159817844629288,0.9723097681999207,
140776,0.03118434175848961,0.05750752240419388,0.9737477898597717,
140876,0.003552527166903019,0.024773618206381798,0.9703437685966492,
140976,-0.0021564695052802563,0.02991430088877678,1.0037357807159424,
141076,0.011183362454175949,0.028562473133206367,1.0143877267837524,
141176,0.020983170717954636,0.02869122475385666,0.9851530194282532,
141276,-0.00508028082549572,0.031453631818294525,1.0259413719177246,
141376,0.01899704337120056,0.04022727534174919,0.9758941531181335,
141476,-0.012624579481780529,0.013802310451865196,0.9969929456710815,
141576,-0.00813952274620533,0.0418647862970829,0.9948967099189758,
141676,-0.024015596136450768,-0.012306753545999527,1.0207843780517578,
141776,-0.003740189364179969,0.03329847380518913,0.9993913769721985,
141876,0.022598950192332268,0.06639143079519272,0.985014796257019,
141976,0.012271026149392128,0.07658789306879044,0.9567437171936035,
142076,0.009747068397700787,0.011694884859025478,1.0142015218734741,
142176,0.014439210295677185,0.03711341693997383,0.9805145859718323,
142276,-0.0016963672824203968,0.029038626700639725,0.9692784547805786,
142376,-0.003768638940528035,0.03870642930269241,0.9886717200279236,
142476,-0.035007186233997345,-0.016234416514635086,1.031779408454895,
142576,-0.009431480430066586,-0.009896166622638702,1.0171135663986206,
142676,0.017810503020882607,0.060234226286411285,1.0021837949752808,
142776,0.027186498045921326,0.031198831275105476,1.0064529180526733,
142876,-0.004957905970513821,0.005192808341234922,1.0392324924468994,
142976,0.023099130019545555,0.02148401364684105,0.9759203195571899,
143076,-0.006271522957831621,0.009996362030506134,1.017330527305603,
143176,-0.027027960866689682,0.03287709876894951,1.0119737386703491,
143276,-0.008146369829773903,0.042971886694431305,1.0300801992416382,
143376,-0.014376121573150158,-1.9597348000388592e-05,1.0335121154785156,
143476,0.007649535778909922,-0.022204305976629257,1.0199730396270752,
143576,-0.020255953073501587,-0.04105061665177345,1.0299118757247925,
143676,-0.003692585974931717,0.00979197584092617,1.0157390832901,
143776,0.01428791880607605,0.03313342109322548,1.0032038688659668,
143876,-0.017020847648382187,0.03641365095973015,1.0149720907211304,
143976,-0.021525831893086433,0.007315885275602341,1.031787395477295,
144076,0.018072957172989845,0.040931571274995804,1.0018280744552612,
144176,0.014965662732720375,0.04385989531874657,0.9800809621810913,
144276,-0.014419883489608765,0.026216018944978714,0.9948868155479431,
144376,0.0031411456875503063,0.03457542881369591,0.9696031808853149,
144476,0.0009836970129981637,0.010744040831923485,0.9907678961753845,
144576,0.000600047002080828,0.02198258973658085,1.0362446308135986,
144676,0.015106049366295338,0.031644370406866074,0.9793160557746887,
144776,-0.006902220193296671,-0.016975320875644684,1.0400736331939697,
144876,0.02964695915579796,0.08001989871263504,0.9921940565109253,
144976,0.0052572451531887054,0.028254376724362373,1.0150413513183594,
145076,0.0024349309969693422,0.03870311751961708,1.0037156343460083,
145176,-0.0048804571852087975,-0.014699236489832401,1.0263972282409668,
145276,0.0010233544744551182,0.013640007935464382,0.9758161306381226,
145376,0.023401807993650436,0.03919848054647446,0.9849128723144531,
145476,-0.010650142095983028,0.03308657556772232,0.9733163118362427,
145576,0.0021813202183693647,-0.015245346352458,1.01780366897583,
145676,-0.0222023818641901,-0.031771570444107056,1.0545976161956787,
145776,0.005441523157060146,0.03674117848277092,0.9777371287345886,
145876,0.018061356619000435,-0.005104122217744589,0.9751984477043152,
145976,-0.016058018431067467,-0.029530195519328117,1.0675103664398193,
146076,0.016132397577166557,0.07735131680965424,0.9987981915473938,
146176,0.009857491590082645,0.029817450791597366,0.9655123949050903,
146276,0.018373483791947365,0.06509087979793549,0.95817631483078,
146376,0.04107627645134926,0.03353356197476387,0.9801518321037292,
146476,0.001338126603513956,0.008092478848993778,1.0073773860931396,
146576,-0.01853664591908455,-0.01432779524475336,1.0066078901290894,
146676,0.005071540363132954,0.0031005179043859243,0.9987741112709045,
146776,0.00754781998693943,-0.013046549633145332,0.986004114151001,
146876,0.014485522173345089,0.008094013668596745,0.9855858087539673,
146976,-0.007100737653672695,0.021210240200161934,0.9995958805084229,
147076,0.01678423583507538,0.02858954668045044,0.9887410998344421,
147176,0.03153717890381813,0.025790603831410408,0.9915902614593506,
147276,-0.008309394121170044,-0.03892619535326958,1.0455876588821411,
147376,0.006260355468839407,-0.010951018892228603,1.0212342739105225,
147476,0.02544042281806469,0.03836209326982498,0.9858235120773315,
147576,0.011234775185585022,0.014624899253249168,1.0260788202285767,
147676,-0.005777580663561821,-0.012876451946794987,1.0351276397705078,
147776,0.002643883228302002,0.030654318630695343,0.9778035283088684,
147876,-0.005720940884202719,0.026708703488111496,1.0117194652557373,
147976,0.00712472153827548,0.009065154008567333,1.010732889175415,
148076,-0.006035318598151207,0.01991942711174488,0.9973317980766296,
148176,-0.0013485929230228066,0.07206419855356216,0.9744642376899719,
148276,-0.008167830295860767,-0.03604884445667267,1.0500240325927734,
148376,-0.016918428242206573,0.033816661685705185,1.0122874975204468,
148476,0.028292328119277954,0.04066336899995804,1.0105860233306885,
148576,0.004491234663873911,0.007214418146759272,1.0074615478515625,
148676,0.04813733324408531,0.09107252210378647,0.9960540533065796,
148776,0.04168238863348961,0.02684749662876129,0.9963778853416443,
148876,0.00864469539374113,0.012039014138281345,0.9925031661987305,
148976,-0.00812832172960043,-0.03212260454893112,1.0549336671829224,
149076,-0.036644551903009415,-0.0038981905672699213,1.029874563217163,
149176,-0.008875241503119469,-0.009569579735398293,1.047761082649231,
149276,0.029880743473768234,0.03699497878551483,0.9878659844398499,
149376,0.01274001132696867,0.037931252270936966,0.9837039709091187,
149476,0.017361298203468323,0.032107751816511154,0.962444007396698,
149576,-0.0034903008490800858,0.012501431629061699,0.9917032718658447,
149676,0.008239297196269035,0.05210106819868088,1.0013974905014038,
149776,0.020990930497646332,0.005879376083612442,1.0100122690200806,
149876,-0.01618184894323349,-0.03318920359015465,1.0115147829055786,
149976,-0.01780780404806137,-0.0073442780412733555,1.0428985357284546,
150076,0.00643048295751214,0.02176537737250328,1.0031185150146484,
150176,0.011109170503914356,0.026320263743400574,0.963076114654541,
150276,0.01602669432759285,0.004950431641191244,0.9900705218315125,
150376,0.04657444730401039,0.1010810136795044,0.9823892116546631,
150476,0.06836169958114624,0.09317220002412796,0.974475622177124,
150576,0.025740137323737144,0.045837946236133575,0.9963231682777405,
150676,0.004984282422810793,0.024611087515950203,0.9778212308883667,
150776,0.028068672865629196,0.03743335232138634,0.9820225238800049,
150876,0.006219306029379368,0.062187567353248596,0.9767885208129883,
150976,0.0032082917168736458,0.028832852840423584,0.9790538549423218,
151076,-0.024059325456619263,-0.025808893144130707,1.026646614074707,
151176,-0.002558673033490777,0.012230830267071724,1.022413730621338,
151276,0.0074789500795304775,0.02558201365172863,1.0035936832427979,
151376,-0.01644044928252697,-0.02157602645456791,1.0126843452453613,
151476,0.003947730641812086,0.022293761372566223,0.9929368495941162,
151576,-0.024215195327997208,0.021935269236564636,1.0204271078109741,
151676,0.008105127140879631,0.030312560498714447,1.028961420059204,
151776,-0.0016082219080999494,0.017279058694839478,1.0018843412399292,
151876,0.0035728481598198414,0.02833544835448265,1.0167227983474731,
151976,0.00983599852770567,0.08369613438844681,1.0194218158721924,
152076,-0.00648623937740922,-0.012145297601819038,1.029343843460083,
152176,0.006117659155279398,0.0025885417126119137,0.99680495262146,
152276,0.01497729867696762,0.02691398188471794,1.0042810440063477,
152376,-0.010766824707388878,0.02215886302292347,0.9759460687637329,
152476,0.003454553196206689,0.013617620803415775,1.0195015668869019,
152576,0.020574118942022324,0.01131878886371851,0.9739938378334045,
152676,0.012762823142111301,0.017780598253011703,1.0273711681365967,
152776,-0.005011815577745438,0.00978079717606306,1.0013408660888672,
152876,0.015598169527947903,0.0175759457051754,0.9601234793663025,
152976,-0.0006391153438016772,0.01125807873904705,1.0296941995620728,
153076,-0.0008603212190791965,0.027569208294153214,0.99510258436203,
153176,0.011355970986187458,0.04525989666581154,0.9817004799842834,
153276,0.03444575518369675,-0.0065516820177435875,0.9585895538330078,
153376,-0.00438412232324481,0.010772604495286942,0.9918456077575684,
153476,-0.0014887878205627203,0.03327047824859619,1.0038267374038696,
153576,0.022687580436468124,0.037794169038534164,0.9714885950088501,
153676,0.012868999503552914,0.0037151104770600796,1.0144805908203125,
153776,-0.0077344817109405994,0.01129383035004139,1.0149977207183838,
153876,-0.00411417568102479,0.026090258732438087,0.9996635913848877,
153976,-0.017908304929733276,-0.004172838293015957,1.0195740461349487,
154076,-0.00556266400963068,0.011262842454016209,0.9915367364883423,
154176,0.0036825756542384624,0.04266921058297157,1.0329468250274658,
154276,-0.03724472224712372,0.009498273022472858,1.0298393964767456,
154376,0.011024613864719868,0.0411364808678627,0.9881389737129211,
154476,-0.013766608200967312,-0.006462607532739639,1.0128215551376343,
154576,-0.02753780409693718,0.027797026559710503,1.0246901512145996,
154676,-0.005027187988162041,0.012630940414965153,1.0129854679107666,
154776,0.020450886338949203,0.018841305747628212,1.0279663801193237,
154876,0.004423396661877632,0.02892887219786644,1.002191185951233,
154976,0.006663565523922443,0.007092293817549944,0.9999057054519653,
155076,0.0036958588752895594,0.01870289444923401,1.0057324171066284,
155176,-0.012174755334854126,0.02907199040055275,1.035707712173462,
155276,-0.014005124568939209,0.006110731512308121,0.9950302243232727,
155376,-0.012736058793962002,0.005748634692281485,0.995678186416626,
155476,0.032110199332237244,0.07808101177215576,0.9472351670265198,
155576,0.00393626419827342,0.04922444000840187,0.9892326593399048,
155676,0.0034047358203679323,0.019917674362659454,1.0236796140670776,
155776,0.026546737179160118,0.030798494815826416,0.9726471900939941,
155876,-0.0021318187937140465,0.034760113805532455,0.9827644228935242,
155976,-0.0031304790172725916,-0.0016108369454741478,0.9969837665557861,
156076,0.006649529095739126,0.022562164813280106,1.015462875366211,
156176,-0.01133440900593996,0.03643195331096649,1.0341485738754272,
156276,0.017969848588109016,0.021444153040647507,0.9990737438201904,
156376,-0.006269094534218311,0.030794627964496613,0.9899613857269287,
156476,-0.019395271316170692,-0.014282789081335068,1.02540123462677,
156576,0.015744276344776154,0.05393330007791519,0.9907830953598022,
156676,-0.004549854900687933,0.03503008931875229,0.9862056970596313,
156776,-0.005086059682071209,0.05506277084350586,0.9659457802772522,
156876,0.016091110184788704,0.02444961480796337,0.9985951781272888,
156976,0.014959375374019146,0.03192977234721184,1.0082383155822754,
157076,0.0028223630506545305,0.0369662269949913,0.9808866381645203,
157176,-0.007555458229035139,0.011979101225733757,1.0138694047927856,
157276,-0.005856924224644899,0.004417413845658302,1.0552140474319458,
157376,0.00640112953260541,0.034563444554805756,1.003484845161438,
157476,-0.01813517138361931,0.015433184802532196,0.9767148494720459,
157576,0.020336898043751717,0.02516178786754608,0.9749371409416199,
157676,-0.003522043116390705,0.025236500427126884,0.9608584046363831,
157776,0.022421255707740784,0.051625970751047134,0.9963755011558533,
157876,-0.025691146031022072,-0.014512172900140285,1.016100287437439,
157976,-0.016482818871736526,0.004194115288555622,1.0472955703735352,
158076,0.014670396223664284,0.037191715091466904,0.9989016652107239,
158176,0.022403255105018616,0.04020684212446213,0.9967911243438721,
158276,-0.016248686239123344,0.022060999646782875,1.0058966875076294,
158376,0.0023327828384935856,0.014803131110966206,0.9777584075927734,
158476,0.00461525609716773,0.014446147717535496,0.998892068862915,
158576,-0.012973107397556305,-0.027578208595514297,1.0381615161895752,
158676,0.03664702549576759,0.07060771435499191,0.9694218635559082,
158776,0.027024932205677032,0.0797550156712532,0.9978165626525879,
158876,0.00928077008575201,0.012686692178249359,0.9892693161964417,
158976,-0.0029202387668192387,-0.01066371239721775,1.014643907546997,
159076,0.0509311705827713,0.0523044615983963,0.9703214764595032,
159176,-0.0062145511619746685,0.032378360629081726,1.0310252904891968,
159276,0.029115794226527214,0.03196611627936363,1.0045791864395142,
159376,-0.005492405034601688,0.011169631034135818,1.0284409523010254,
159476,0.007486540358513594,0.07094132155179977,1.022344946861267,
159576,0.006282534450292587,0.03178475424647331,1.0031278133392334,
159676,0.018909776583313942,0.022690659388899803,1.0110868215560913,
159776,0.01748702861368656,0.057368967682123184,0.9603199362754822,
159876,-0.0062047685496509075,-0.014486859552562237,1.0163471698760986,
159976,0.012709636241197586,0.030997904017567635,0.9783008694648743,
160076,0.022315161302685738,0.05264422670006752,0.982749879360199,
160176,0.007777388673275709,-0.0205856841057539,1.0018905401229858,
160276,-0.000801385787781328,0.006402484606951475,0.9606788754463196,
160376,-0.011779630556702614,0.0022537705954164267,1.0092594623565674,
160476,0.0038779948372393847,0.05986275523900986,0.9965227246284485,
160576,-0.0340077206492424,-0.031410232186317444,1.090552806854248,
160676,0.02382909320294857,0.049209076911211014,0.9800699353218079,
160776,0.04150576516985893,0.0790635272860527,0.915678083896637,
160876,-0.0034155359026044607,0.01197920273989439,0.975532591342926,
160976,-0.010197892785072327,0.01977473683655262,0.9792376756668091,
161076,-0.009059030562639236,0.01726049929857254,1.0348844528198242,
161176,0.008541072718799114,0.012495693750679493,0.9996254444122314,
161276,-0.028317688032984734,-0.029995093122124672,1.0765236616134644,
161376,0.0246172733604908,0.05541573092341423,0.9837135076522827,
161476,0.010423249565064907,0.029901035130023956,1.0150741338729858,
161576,-0.0092365937307477,0.016810135915875435,1.027151346206665,
161676,-0.0059789991937577724,-0.032442767173051834,1.0322685241699219,
161776,-0.012735651805996895,0.004013638943433762,1.0322571992874146,
161876,0.014548039063811302,0.003205318469554186,1.0267287492752075,
161976,0.010204330086708069,0.03417292237281799,1.0169270038604736,
162076,-0.006230535916984081,0.0076821353286504745,0.9826868176460266,
162176,0.012321599759161472,0.019154824316501617,0.9960768222808838,
162276,0.02527148462831974,0.08300293982028961,0.9954094886779785,
162376,0.009757963009178638,0.04375627264380455,0.9763519167900085,
162476,0.007463797926902771,0.026709748432040215,1.0035984516143799,
162576,0.031775157898664474,0.07207683473825455,0.9740925431251526,
162676,-0.0009355380316264927,-0.0014630270889028907,1.0288578271865845,
162776,-0.002854933962225914,0.06246155500411987,0.9863187074661255,
162876,-0.01716446876525879,-0.01617337577044964,1.0107344388961792,
162976,0.009357293136417866,0.04726607725024223,0.9815415740013123,
163076,0.02034754492342472,0.02752988412976265,0.9708384871482849,
163176,-0.01395096629858017,0.0158704686909914,0.9826118350028992,
163276,0.010633272118866444,0.017805347219109535,0.9755141139030457,
163376,-0.008485214784741402,0.03229814022779465,1.0095046758651733,
163476,-0.017491629347205162,0.03304782509803772,0.9915047287940979,
163576,-0.008498980663716793,-0.009388735517859459,1.0162386894226074,
163676,0.0002131960791302845,0.0042173415422439575,1.0087401866912842,
163776,-0.03308813273906708,-0.023085573688149452,1.0337514877319336,
163876,-0.021263152360916138,0.020275935530662537,1.030291199684143,
163976,0.018597450107336044,0.04030357301235199,0.9793409705162048,
164076,0.014657826162874699,0.02260693907737732,1.023776888847351,
164176,-0.00046868366189301014,0.008521107025444508,0.9857438802719116,
164276,-0.008607749827206135,0.015720348805189133,0.9970629811286926,
164376,-0.0017627236666157842,0.010797410272061825,1.0130345821380615,
164476,0.012814025394618511,0.009618998505175114,0.9980243444442749,
164576,-0.0067475587129592896,-0.0015961520839482546,1.024064540863037,
164676,0.008391652256250381,0.061748821288347244,0.9868277311325073,
164776,-0.006707376334816217,0.006145420018583536,1.0069540739059448,
164876,-0.004411875735968351,0.020582715049386024,1.014512300491333,
164976,-0.0013313260860741138,0.024473845958709717,0.9926551580429077,
165076,0.02085013873875141,0.013975067064166069,0.9997893571853638,
165176,0.006924527231603861,0.00593116320669651,1.003075122833252,
165276,-0.007632982451468706,0.017709720879793167,1.0047863721847534,
165376,0.006174271926283836,0.017986321821808815,0.9928909540176392,
165476,0.017521753907203674,0.04651356488466263,0.9881075024604797,
165576,0.011585209518671036,0.03279208391904831,1.001350998878479,
165676,-0.010685732588171959,0.03132251650094986,1.0124272108078003,
165776,0.0022880840115249157,0.029667001217603683,0.9893633127212524,
165876,-0.019872380420565605,0.030253322795033455,1.0158162117004395,
165976,-0.018919294700026512,0.0012693600729107857,1.0338735580444336,
166076,0.0016453458229079843,0.009298558346927166,1.002363681793213,
166176,-0.012236648239195347,-0.00022588518913835287,1.0076866149902344,
166276,0.006583671551197767,0.0453653447329998,0.9583220481872559,
166376,-0.024775143712759018,-0.005670811515301466,0.9672807455062866,
166476,0.016183065250515938,0.0565980039536953,0.9590700268745422,
166576,0.01919138804078102,0.029971666634082794,0.9792576432228088,
166676,-0.02078023925423622,-0.012443498708307743,1.0275124311447144,
166776,0.0008916285005398095,0.04368383064866066,0.983254611492157,
166876,0.012425095774233341,0.02573591098189354,0.9874799251556396,
166976,0.028257519006729126,0.06702776998281479,0.9694425463676453,
167076,0.007485313341021538,0.04519803076982498,1.0279461145401,
167176,-0.01132969930768013,0.044294729828834534,1.0054562091827393,
167276,-0.011745619587600231,0.0038987554144114256,1.01229989528656,
167376,0.02277381159365177,0.0278166476637125,0.9957192540168762,
167476,-0.007577869109809399,0.004630032926797867,1.014135479927063,
167576,0.030085748061537743,0.006797915790230036,0.9624293446540833,
167676,-0.0037800599820911884,0.009139351546764374,0.9794119000434875,
167776,0.02633352391421795,0.04382634535431862,0.9497509002685547,
167876,0.026606444269418716,0.03020738624036312,0.9508724212646484,
167976,0.015615184791386127,0.02020382508635521,1.004549503326416,
168076,-0.015364301390945911,-0.022343821823596954,1.0514148473739624,
168176,-0.00990650150924921,0.0006222364027053118,1.0177967548370361,
168276,0.0001324929326074198,0.021287430077791214,1.0058172941207886,
168376,0.0008519947296008468,0.014146544970571995,1.0322823524475098,
168476,0.01606866717338562,0.030598513782024384,1.0014759302139282,
168576,0.029946500435471535,0.11521411687135696,0.9849721193313599,
168676,0.01602746546268463,0.06882723420858383,0.9819284081459045,
168776,-0.01133628748357296,-0.019058678299188614,1.0260154008865356,
168876,-0.008686327375471592,0.009982357732951641,1.023645043373108,
168976,0.018835442140698433,0.03083077259361744,0.9910346269607544,
169076,0.012594894506037235,0.030737731605768204,0.9752050042152405,
169176,0.008841872215270996,0.03820526599884033,0.9897127151489258,
169276,0.015047060325741768,0.010264811106026173,0.9827557802200317,
169376,-0.03802105411887169,-0.002364689251407981,1.0247145891189575,
169476,0.045045576989650726,0.10959070920944214,0.9510631561279297,
169576,0.032037630677223206,0.07398425042629242,0.9627145528793335,
169676,0.0005155795952305198,0.06872795522212982,1.0061250925064087,
169776,0.012216045521199703,0.03034283220767975,0.9896150827407837,
169876,0.008232535794377327,0.0528903491795063,0.9705724716186523,
169976,0.005032595247030258,0.024149978533387184,1.0261991024017334,
170076,0.02624659426510334,0.03196375072002411,0.9919975399971008,
170176,-0.019495360553264618,0.018758835271000862,1.0432683229446411,
170276,0.003777220379561186,0.006962625775486231,1.001462459564209,
170376,0.0031007924117147923,0.008552850224077702,0.9873670935630798,
170476,-0.005858622491359711,0.04477137699723244,1.0145328044891357,
170576,-0.0018115920247510076,0.03247388079762459,1.014056921005249,
170676,0.002644654829055071,0.012803853489458561,0.9907759428024292,
170776,-0.012237120419740677,0.01564699597656727,1.000572919845581,
170876,0.01326349750161171,0.02055775374174118,0.9682400822639465,
170976,-0.00735460314899683,-0.0025326795876026154,1.0195995569229126,
171076,0.012613722123205662,0.030837025493383408,0.9927360415458679,
171176,-7.439959881594405e-05,0.00466565927490592,0.9875090718269348,
171276,0.01514433603733778,0.04621003568172455,1.0292915105819702,
171376,0.0024777976796031,0.04263861104846001,1.0124781131744385,
171476,0.003898217575624585,0.025284580886363983,1.0203063488006592,
171576,0.0030509978532791138,0.041936181485652924,1.0045862197875977,
171676,0.0005399401998147368,0.05606390908360481,1.00599205493927,
171776,0.0017798604676499963,-0.016820289194583893,1.0201387405395508,
171876,-0.011246839538216591,0.0019766222685575485,0.9974077343940735,
171976,0.014608634635806084,0.06099279969930649,0.9745107889175415,
172076,0.034403447061777115,0.03607742115855217,0.9617242813110352,
172176,0.012210526503622532,0.02603774331510067,1.0270888805389404,
172276,-0.002764754695817828,0.0020381545182317495,1.0028594732284546,
172376,-0.02219933085143566,-0.013307731598615646,1.0137337446212769,
172476,0.020235858857631683,0.026934709399938583,0.9598194360733032,
172576,0.030682025477290154,0.042215798050165176,0.9720913171768188,
172676,0.006870605051517487,0.0200337003916502,1.019303321838379,
172776,-0.002466339385136962,0.03566061332821846,0.9988545775413513,
172876,-0.0174072477966547,0.01363135501742363,0.9972100853919983,
172976,-0.011647331528365612,0.016153967007994652,0.9725178480148315,
173076,0.002354320837184787,0.027715686708688736,0.9935592412948608,
173176,0.008203890174627304,0.06577983498573303,0.9802936315536499,
173276,-0.005730706732720137,0.0218424703925848,0.9756373763084412,
173376,-0.0032352511771023273,0.02773253433406353,1.0123767852783203,
173476,0.004875681828707457,0.06926918774843216,0.9868720173835754,
173576,0.007013882976025343,0.029244698584079742,0.962486982345581,
173676,0.014310122467577457,0.02893778868019581,0.9607973098754883,
173776,-0.009545992128551006,-0.01998615451157093,0.9926108717918396,
173876,0.013909419998526573,-0.013381804339587688,0.9882597923278809,
173976,-0.02086826041340828,-0.019249267876148224,1.019356369972229,
174076,0.013390795327723026,0.014748113229870796,0.971493124961853,
174176,0.012000801041722298,0.030042964965105057,0.971785306930542,
174276,0.008546768687665462,-0.003748346585780382,1.0306575298309326,
174376,0.02965317852795124,0.03561285138130188,0.9724523425102234,
174476,0.014321191236376762,0.00983300618827343,1.0426549911499023,
174576,0.0024707410484552383,0.022935688495635986,1.006607174873352,
174676,0.014309613965451717,0.044606372714042664,0.9874229431152344,
174776,-0.005661116447299719,0.005194847472012043,1.011778473854065,
174876,-0.0019635790959000587,0.022187845781445503,1.010069727897644,
174976,0.015827497467398643,0.005801346618682146,0.9824858903884888,
175076,0.023731520399451256,0.04657750576734543,0.9629400968551636,
175176,-0.02073506824672222,0.04045720025897026,1.0262291431427002,
175276,0.005956121254712343,-0.0009297682554461062,0.9811577796936035,
175376,0.0044656614772975445,-0.008011476136744022,0.9893121719360352,
175476,0.008117718622088432,-0.004575125407427549,0.9970588088035583,
175576,-0.0008043449488468468,0.0021963680628687143,1.022783637046814,
175676,0.01152677834033966,0.030305661261081696,0.9732221364974976,
175776,-0.008693244308233261,-0.014993925578892231,1.002110481262207,
175876,0.004185937810689211,0.0191983450204134,1.0096627473831177,
175976,0.0030579769518226385,0.014847774058580399,1.0145231485366821,
176076,-0.005474246107041836,0.00559215247631073,1.0054696798324585,
176176,0.009261148050427437,0.04909359663724899,1.0047881603240967,
176276,0.038221120834350586,0.09483855962753296,0.9530918002128601,
176376,0.00811665691435337,0.000816185143776238,1.0147067308425903,
176476,0.013112266547977924,0.013735403306782246,0.9920322895050049,
176576,0.0003372524515725672,0.01963110826909542,1.0184745788574219,
176676,0.031357768923044205,0.051758624613285065,0.9716207981109619,
176776,0.030263297259807587,0.043374720960855484,0.958942174911499,
176876,0.029437223449349403,0.014915184117853642,0.9851029515266418,
176976,0.027400489896535873,0.01795824244618416,1.0095882415771484,
177076,0.02085614576935768,0.04466666653752327,0.9974453449249268,
177176,0.028623031452298164,0.019048618152737617,0.977167010307312,
177276,0.005664999131113291,-0.0009990842081606388,1.0051711797714233,
177376,-0.010990796610713005,0.017251495271921158,1.0350936651229858,
177476,0.013369014486670494,-0.006614948157221079,1.0329240560531616,
177576,0.0017379570053890347,0.012448347173631191,1.008984088897705,
177676,-0.03155694529414177,-0.004328384064137936,1.0181783437728882,
177776,0.015132514759898186,0.008056744001805782,0.9827438592910767,
177876,-0.0014307111268863082,0.03869000822305679,0.9982608556747437,
177976,-0.005524294916540384,0.009842107072472572,1.0119150876998901,
178076,0.003396254265680909,-0.005149546079337597,1.0151337385177612,
178176,-0.002407730557024479,0.02583572268486023,1.0109541416168213,
178276,0.002411175984889269,0.047698743641376495,0.9817857146263123,
178376,0.0060829054564237595,0.014300210401415825,1.023817777633667,
178476,-0.0047881887294352055,-0.0028255030047148466,1.0284823179244995,
178576,0.01689792610704899,0.05367244780063629,0.9864117503166199,
178676,0.01996764913201332,0.06324127316474915,0.9807580709457397,
178776,0.023042023181915283,0.04457751289010048,0.9727329015731812,
178876,-0.010383719578385353,-0.03172696381807327,1.023690104484558,
178976,0.03348486125469208,0.046494655311107635,0.9713022708892822,
179076,-0.0010780143784359097,0.04298081248998642,0.9896998405456543,
179176,0.002342506777495146,0.040182504802942276,1.016487717628479,
179276,0.005263976287096739,0.03810856118798256,0.9837570786476135,
179376,0.04796677455306053,0.038295406848192215,1.0105029344558716,
179476,0.003644986543804407,0.05492084100842476,0.9802900552749634,
179576,0.022340286523103714,0.06465721875429153,0.9692792296409607,
179676,0.006322083529084921,0.0688188299536705,0.9906302690505981,
179776,0.017338305711746216,0.032677266746759415,0.9756755828857422,
179876,0.009793516248464584,0.04455801472067833,0.9697915315628052,
179976,0.03161054849624634,0.08239807933568954,0.9913254380226135,
180076,0.0028446458745747805,0.043791513890028,1.0065439939498901,
180176,0.026531437411904335,0.012133830226957798,1.0137912034988403,
180276,0.010678709484636784,0.02158556692302227,0.9974712133407593,
180376,-0.020939242094755173,0.01664995402097702,0.9855653643608093,
180476,-0.011815416626632214,-0.024800077080726624,1.0339750051498413,
180576,0.0010615827050060034,-0.033476196229457855,1.0248006582260132,
180676,0.0015689744614064693,0.002944947686046362,1.0385353565216064,
180776,-0.008495471440255642,-0.018908439204096794,1.0456753969192505,
180876,0.036091990768909454,0.029726240783929825,0.9793041348457336,
180976,0.025403432548046112,0.03521198406815529,1.0103479623794556,
181076,0.022048838436603546,0.04025556519627571,0.9900054931640625,
181176,0.0035565050784498453,0.03192520886659622,0.9948475360870361,
181276,0.01597881130874157,0.027321279048919678,0.9930794835090637,
181376,-0.019477229565382004,0.018105586990714073,1.0022234916687012,
181476,0.00987649243324995,0.03763435781002045,0.9739215970039368,
181576,0.031139377504587173,0.0520724281668663,0.9787118434906006,
181676,0.03031948395073414,0.040916308760643005,0.9806739687919617,
181776,0.004492861218750477,-0.012338174507021904,0.998121440410614,
181876,-0.02051633782684803,0.018666479736566544,1.0294917821884155,
181976,0.01605287939310074,0.030599871650338173,0.9772419333457947,
182076,0.017164157703518867,0.011281870305538177,0.9858196377754211,
182176,-0.0005283922655507922,0.022307755425572395,0.9691175222396851,
182276,0.058060236275196075,0.07679135352373123,0.9597612619400024,
182376,-0.015872269868850708,0.0032750689424574375,1.069312572479248,
182476,0.02825956791639328,0.03841235116124153,0.975911021232605,
182576,0.0001896250032586977,0.023338640108704567,0.9897165298461914,
182676,-0.02409607358276844,-0.02202649600803852,1.0192381143569946,
182776,0.007954515516757965,0.07644147425889969,1.0053613185882568,
182876,0.002689206274226308,0.029041968286037445,0.9794424772262573,
182976,-0.01322998572140932,0.06971672177314758,0.9934297800064087,
183076,0.015165917575359344,0.019509371370077133,1.0123026371002197,
183176,-0.0032548215240240097,0.038761209696531296,1.024078369140625,
183276,0.00037175309262238443,0.01954479329288006,1.0310896635055542,
183376,0.00020151505304966122,0.045623891055583954,1.0134187936782837,
183476,0.02070259302854538,0.05705995485186577,0.993083119392395,
183576,0.022116655483841896,0.056511007249355316,0.9862772226333618,
183676,0.020150423049926758,0.02271251194179058,0.9975097179412842,
183776,0.013929668813943863,0.03918131813406944,1.0131369829177856,
183876,0.039606042206287384,0.055351532995700836,0.9552891850471497,
183976,-0.018116779625415802,-0.005746068432927132,1.034568428993225,
184076,0.0037380040157586336,0.05204007774591446,0.9922573566436768,
184176,-0.010542206466197968,0.025176264345645905,1.0168570280075073,
184276,0.015256298705935478,0.007241211831569672,0.9824020862579346,
184376,0.0074364421889185905,0.04104892536997795,0.9847214818000793,
184476,0.024855051189661026,0.013875042088329792,1.0029155015945435,
184576,0.004252310376614332,0.07319068908691406,0.9896047115325928,
184676,-0.0003132779092993587,0.03428611159324646,1.0117207765579224,
184776,-0.006332164630293846,-0.017700206488370895,1.0148335695266724,
184876,0.03610879182815552,0.018760016188025475,0.9614019393920898,
184976,0.013794220052659512,0.0473666749894619,0.9898799657821655,
185076,0.009872077964246273,0.05634240061044693,0.9936153888702393,
185176,0.0059193833731114864,0.023864561691880226,0.9970174431800842,
185276,-0.008113611489534378,0.026644842699170113,0.9730269312858582,
185376,0.009897218085825443,0.01820051483809948,1.0012456178665161,
185476,-0.007406261283904314,0.01616646908223629,1.0217922925949097,
185576,-0.009441420435905457,0.015890028327703476,0.9926362633705139,
185676,0.0027501790318638086,-0.008733414113521576,1.0157521963119507,
185776,-0.0017120379488915205,0.04669889807701111,1.0262621641159058,
185876,0.0029375662561506033,0.03313961625099182,1.0181925296783447,
185976,0.019762786105275154,0.025903144851326942,0.9696987867355347,
186076,0.006561905145645142,0.03595614433288574,0.9921718835830688,
186176,0.014872663654386997,0.02766905166208744,0.9857122898101807,
186276,0.007281837053596973,0.023546366021037102,1.0148727893829346,
186376,0.014476326294243336,0.06397050619125366,1.0067036151885986,
186476,0.004831762984395027,0.039649467915296555,1.0486923456192017,
186576,-0.036768533289432526,0.00913266558200121,1.0288617610931396,
186676,-0.015234443359076977,0.008452835492789745,1.0083627700805664,
186776,-0.012297251261770725,0.017367305234074593,0.9984511137008667,
186876,-0.016426825895905495,0.0184358861297369,1.0152385234832764,
186976,-0.025500863790512085,0.030050428584218025,1.0427078008651733,
187076,0.01273585669696331,0.018905336037278175,1.0285357236862183,
187176,0.01771397702395916,0.03296000882983208,0.9983605146408081,
187276,-0.0034181219525635242,-0.014963679946959019,1.019919514656067,
187376,0.012626741081476212,-0.0013459417968988419,1.0063903331756592,
187476,-0.001024823752231896,0.003122420981526375,1.0354204177856445,
187576,0.011040661484003067,0.01898299530148506,0.998692512512207,
187676,-0.02894829772412777,0.0253814235329628,1.0272668600082397,
187776,-0.006934273988008499,0.008461717516183853,1.0250455141067505,
187876,0.007775594014674425,0.018246879801154137,0.9947924613952637,
187976,0.01817033439874649,0.021765585988759995,0.973334550857544,
188076,-0.0038002522196620703,0.042625319212675095,1.0155993700027466,
188176,-0.022009411826729774,0.020706921815872192,0.99532550573349,
188276,-0.004405558109283447,0.011321645230054855,1.0338919162750244,
188376,-0.011166803538799286,0.07852758467197418,0.9802824854850769,
188476,-0.0014076054794713855,0.02520615980029106,0.9941186904907227,
188576,-0.01078380923718214,0.06110727787017822,1.0042645931243896,
188676,0.0025715259835124016,0.028427038341760635,0.9984475374221802,
188776,0.00809000339359045,0.02531375363469124,1.0182769298553467,
188876,-0.007309240754693747,0.037357352674007416,1.006318211555481,
188976,0.021695606410503387,0.01596677303314209,0.9713292121887207,
189076,0.00783725269138813,0.034958820790052414,0.9927988648414612,
189176,0.002069274429231882,0.030001778155565262,1.0008056163787842,
189276,0.02309931255877018,0.02660897932946682,0.9745675325393677,
189376,0.013367938809096813,0.00414629653096199,0.9910903573036194,
189476,0.013300839811563492,-0.008201859891414642,0.9971610903739929,
189576,-0.0014150419738143682,0.06115156412124634,0.9647071361541748,
189676,0.0024564338382333517,-0.005506651010364294,0.9855707883834839,
189776,0.010479000397026539,0.013167204335331917,1.034371256828308,
189876,0.006284014321863651,0.0421745739877224,1.0028977394104004,
189976,-0.008192514069378376,0.01448102854192257,1.0238088369369507,
190076,-0.002480380469933152,0.02697908878326416,1.004660964012146,
190176,-0.007275849115103483,0.0005888096056878567,1.0296868085861206,
190276,0.00601404020562768,0.042842574417591095,0.9663623571395874,
190376,0.011568481102585793,0.017684824764728546,0.9690402150154114,
190476,0.029046328738331795,0.029814254492521286,0.9516697525978088,
190576,0.00726599944755435,0.036598850041627884,1.0103849172592163,
190676,0.006035462487488985,0.0734083354473114,0.9770331382751465,
190776,0.001597937778569758,0.05901659280061722,0.9854905009269714,
190876,-0.0008409461588598788,0.00846350472420454,1.0212489366531372,
190976,0.0013209566241130233,-0.01594577729701996,1.0190457105636597,
191076,0.022483613342046738,0.06767278909683228,0.9955714344978333,
191176,0.0026054654736071825,0.03888029232621193,0.9962164759635925,
191276,0.023880576714873314,0.05806788057088852,0.996035635471344,
191376,0.008199873380362988,0.02041235752403736,0.9995414614677429,
191476,-0.004757062066346407,0.016098491847515106,0.9918981790542603,
191576,-0.016004452481865883,0.00024130172096192837,1.0183244943618774,
191676,0.015066145919263363,0.04424743726849556,0.9769166111946106,
191776,0.010055885650217533,0.025679992511868477,1.020438551902771,
191876,-0.012521842494606972,-0.01325028296560049,1.0391297340393066,
191976,-0.007400933653116226,-0.003340310649946332,1.0234124660491943,
192076,-0.004525140859186649,0.04639967530965805,0.9719035625457764,
192176,0.023647593334317207,0.042406123131513596,0.9657822251319885,
192276,0.0076082805171608925,0.030112603679299355,1.0149924755096436,
192376,-0.0003521353064570576,0.05379559099674225,0.9939109086990356,
192476,0.009768073447048664,0.06662793457508087,1.0059202909469604,
192576,0.023658055812120438,0.032381583005189896,0.9961569309234619,
192676,0.0004568511212710291,0.003485185792669654,1.0160796642303467,
192776,0.0006002846639603376,0.007731204852461815,1.0041232109069824,
192876,0.01996263861656189,0.07395623624324799,1.008337140083313,
192976,-0.0013731418875977397,0.049163516610860825,0.9648988842964172,
193076,0.055272430181503296,0.0287929717451334,0.9452807307243347,
193176,-0.01661102846264839,0.01651790924370289,1.0337159633636475,
193276,0.010910485871136189,0.04470868036150932,1.006710410118103,
193376,0.002658935496583581,-0.0012411157367751002,0.9979457855224609,
193476,-0.012729264795780182,0.009565109387040138,1.0060312747955322,
193576,-0.014519761316478252,0.03736000508069992,1.0376014709472656,
193676,-0.0024825301952660084,0.053848788142204285,1.0093382596969604,
193776,-0.01034630462527275,0.03462722525000572,1.0116468667984009,
193876,0.0069663445465266705,-0.005310105625540018,1.0166205167770386,
193976,0.016291439533233643,0.08508224785327911,0.9976025223731995,
194076,-0.0011628768406808376,0.0005412602331489325,1.0052821636199951,
194176,-0.0018964563496410847,0.025877278298139572,0.9813266396522522,
194276,0.008146860636770725,0.03983863815665245,1.0307610034942627,
194376,0.0451083779335022,0.04806134104728699,0.9774957895278931,
194476,-0.0108190244063735,0.060855962336063385,0.9808891415596008,
194576,0.014893054030835629,0.05899800732731819,0.9906805157661438,
194676,-0.01886269450187683,0.051046036183834076,1.007161259651184,
194776,-0.0028561775106936693,0.029926275834441185,1.0088878870010376,
194876,0.018967287614941597,0.0866674929857254,0.9877527356147766,
194976,-0.00941355712711811,0.029274627566337585,1.084336757659912,
195076,0.004794138949364424,0.0355314239859581,1.0058592557907104,
195176,0.010272257961332798,0.03402256965637207,1.0152546167373657,
195276,0.011402384378015995,0.039942458271980286,1.0202133655548096,
195376,-0.005859045311808586,0.06228731945157051,1.0493245124816895,
195476,0.0186710674315691,0.07206090539693832,0.9454457759857178,
195576,-0.018775776028633118,-0.0027657123282551765,1.0113551616668701,
195676,-0.0035881209187209606,0.023240672424435616,1.0290048122406006,
195776,-0.0090629318729043,-0.010104606859385967,1.054201364517212,
195876,0.0141840148717165,0.025119811296463013,1.0197227001190186,
195976,0.023901760578155518,0.03777194023132324,0.9929765462875366,
196076,0.025235509499907494,0.04218624532222748,1.0008426904678345,
196176,0.0014195098774507642,0.04950486496090889,1.020422101020813,
196276,0.016037417575716972,0.01960180699825287,0.973138689994812,
196376,0.02599061094224453,0.04237087443470955,1.0396959781646729,
196476,0.01792868599295616,0.046378638595342636,1.0414400100708008,
196576,0.030502324923872948,0.063286691904068,0.9814870357513428,
196676,0.004912893753498793,0.05762797221541405,1.039720058441162,
196776,0.009609703905880451,0.019294658675789833,0.9981351494789124,
196876,0.01942218281328678,0.0242420993745327,1.027215600013733,
196976,0.031069699674844742,0.06273890286684036,0.9689401984214783,
197076,0.015488281846046448,0.054361741989851,1.017852544784546,
197176,0.018180953338742256,0.04986118525266647,0.9838207364082336,
197276,0.012109656818211079,0.05835836008191109,0.9847769737243652,
197376,0.022667786106467247,0.09274864941835403,0.9766056537628174,
197476,-0.027867991477251053,0.005708607379347086,1.0253405570983887,
197576,0.02801036834716797,0.04260670766234398,0.9905154705047607,
197676,0.021619722247123718,0.027187954634428024,0.9982823133468628,
197776,-0.0021336216013878584,0.0654766634106636,1.0013163089752197,
197876,0.03269291669130325,0.03204726427793503,0.968278706073761,
197976,0.006005062721669674,0.012719456106424332,1.0108085870742798,
198076,-0.012921096757054329,0.057722676545381546,1.0205687284469604,
198176,0.005699735600501299,0.018723323941230774,0.9703974723815918,
198276,0.010810934007167816,0.026232575997710228,1.021000862121582,
198376,-0.00949539802968502,0.00433760229498148,1.0133634805679321,
198476,-0.004535955376923084,0.037787433713674545,0.9931098222732544,
198576,-0.01375002134591341,0.006750186439603567,1.0001696348190308,
198676,0.023620480671525,0.030955925583839417,0.9825801849365234,
198776,-0.006050582509487867,0.03316650167107582,1.012859582901001,
198876,-0.014060739427804947,-0.022629087790846825,1.0788191556930542,
198976,-0.017687758430838585,0.030557772144675255,1.0356570482254028,
199076,0.001441467204131186,-0.011466304771602154,1.009873867034912,
199176,0.006584632210433483,0.032271597534418106,0.97781902551651,
199276,0.021893400698900223,0.008874054066836834,0.9991029500961304,
199376,0.008190121501684189,0.020659243687987328,1.0532944202423096,
199476,0.015125931240618229,0.008780276402831078,1.025492548942566,
199576,0.04408196359872818,0.05713094770908356,0.9559434652328491,
199676,-0.012511234730482101,0.01345880888402462,0.9362457394599915,
199776,0.009603096172213554,0.03260521963238716,0.9787738919258118,
199876,0.019070271402597427,0.035174883902072906,0.9760593771934509,
199976,-0.008490015752613544,0.03526108339428902,0.9983799457550049,
200076,-0.0025469744578003883,0.015905294567346573,1.0055747032165527,
200176,0.01150208804756403,0.04671892151236534,0.9701048731803894,
200276,0.0008808810380287468,0.037883758544921875,0.9815871715545654,
200376,0.0039213369600474834,0.041154682636260986,0.9994038939476013,
200476,-0.007822152227163315,0.042054738849401474,1.023885726928711,
200576,0.011762496083974838,0.0030516667757183313,1.0243898630142212,
200676,0.01364970114082098,0.048748213797807693,1.0225508213043213,
200776,-0.01649514213204384,0.03209948167204857,1.037768840789795,
200876,-0.008892501704394817,0.023873066529631615,1.02800452709198,
200976,-0.003353479551151395,0.026616167277097702,0.9966236352920532,
201076,0.01552051492035389,0.03806096315383911,1.011021375656128,
201176,-0.01356377825140953,-0.015561452135443687,1.038360834121704,
201276,-0.004472339525818825,0.03249896690249443,1.0059034824371338,
201376,-0.010012500919401646,0.029541539028286934,1.0011610984802246,
201476,0.005814141593873501,0.03397262468934059,0.969028115272522,
201576,0.010765379294753075,0.026236437261104584,0.9987170100212097,
201676,0.0022838693112134933,0.055647701025009155,0.9976524710655212,
201776,0.006521779112517834,0.029857156798243523,0.982985258102417,
201876,0.01507668849080801,0.05763452500104904,0.9825825691223145,
201976,-0.0007482239743694663,0.011051446199417114,1.0314686298370361,
202076,0.011208226904273033,0.012238424271345139,0.9961078763008118,
202176,0.020153921097517014,0.017752880230545998,0.9863473773002625,
202276,-0.0022925285156816244,0.026344172656536102,1.021218180656433,
202376,-0.006165172904729843,0.04424989968538284,0.982650637626648,
202476,0.017818212509155273,0.08499850332736969,0.9930945038795471,
202576,-0.0022200492676347494,-0.008044403977692127,1.0044705867767334,
202676,-0.0030711910221725702,0.03172808513045311,0.993602991104126,
202776,-0.011512632481753826,0.04294384643435478,0.9991393089294434,
202876,-0.010203399695456028,-0.011768301017582417,1.0302802324295044,
202976,-0.012157224118709564,0.019837167114019394,1.0110093355178833,
203076,-0.006841857451945543,0.023157935589551926,1.047802448272705,
203176,0.0173285361379385,0.04046549275517464,0.9824820756912231,
203276,0.016549894586205482,0.04148866608738899,0.9834246635437012,
203376,-0.005913669243454933,0.01176791824400425,1.0017856359481812,
203476,-0.003022609045729041,-0.016759395599365234,1.0146266222000122,
203576,0.003584824036806822,-0.012053326703608036,1.0227255821228027,
203676,0.0029727364890277386,0.036626897752285004,1.001269817352295,
203776,-0.006781962234526873,0.039867330342531204,0.9517209529876709,
203876,0.020558955147862434,0.04182709380984306,0.982873797416687,
203976,0.010115138255059719,0.014935482293367386,0.9978772401809692,
204076,0.016160665079951286,0.01125349011272192,0.9967525005340576,
204176,0.007133738603442907,0.04742502421140671,0.9908615946769714,
204276,-0.01815621554851532,0.009213297627866268,1.005777359008789,
204376,0.028889086097478867,0.014693399891257286,0.987544059753418,
204476,0.002885353285819292,0.05855896696448326,0.9857045412063599,
204576,0.01800590381026268,0.053619928658008575,0.9863114953041077,
204676,-0.04094378277659416,0.019100191071629524,1.0271120071411133,
204776,0.017045754939317703,0.01492706872522831,1.0009379386901855,
204876,-0.00535415718331933,0.05534496158361435,0.9961155652999878,
204976,0.011803556233644485,0.03789590299129486,0.9967103600502014,
205076,0.00589160667732358,0.004119758028537035,0.9777342677116394,
205176,0.009152743965387344,0.02283150888979435,1.0110468864440918,
205276,0.00633798586204648,0.03351341933012009,1.029491901397705,
205376,-0.003827702021226287,-0.010013341903686523,1.0184228420257568,
205476,0.017941702157258987,0.028582004830241203,0.9818994402885437,
205576,-0.009170172736048698,0.02857527695596218,1.00650155544281,
205676,0.009933753870427608,0.004390895366668701,1.031042456626892,
205776,0.0036913363728672266,0.045857984572649,1.0032292604446411,
205876,0.0012017053086310625,0.015036879107356071,1.003443717956543,
205976,0.00953848659992218,0.0029472599271684885,1.0069397687911987,
206076,0.0032221220899373293,0.008698442950844765,0.9974543452262878,
206176,-0.010258890688419342,0.044161107391119,0.9751779437065125,
206276,0.0020059198141098022,0.030862249433994293,0.9815307259559631,
206376,0.011792346835136414,0.058388665318489075,0.9789966940879822,
206476,0.00015510722005274147,0.05669922009110451,1.0133392810821533,
206576,0.012039856053888798,0.08323623239994049,0.9937184453010559,
206676,0.004672585055232048,0.03375503048300743,1.0214271545410156,
206776,-0.0124379126355052,0.040034275501966476,0.9868322014808655,
206876,0.020871469751000404,0.07127634435892105,0.9864932298660278,
206976,-0.013308472000062466,0.0165182426571846,1.0215188264846802,
207076,-0.009603234939277172,0.009120573289692402,0.9983277320861816,
207176,0.009123140014708042,0.0398319810628891,0.9958407878875732,
207276,0.010491791181266308,0.04203310236334801,1.0059189796447754,
207376,-0.008719408884644508,0.06756670027971268,0.9947611689567566,
207476,0.02108275704085827,0.042948316782712936,0.9863536953926086,
207576,0.009348307736217976,0.028024738654494286,0.9977553486824036,
207676,-0.006796184461563826,0.033768754452466965,1.012899398803711,
207776,0.0014466079883277416,-0.0017033724579960108,1.024256706237793,
207876,-0.008127057924866676,0.05251093953847885,1.0089703798294067,
207976,-0.030954185873270035,-0.00800994224846363,1.0565460920333862,
208076,0.0024375836364924908,-0.01044598501175642,1.017965316772461,
208176,0.012657777406275272,0.0576358288526535,1.0061180591583252,
208276,0.013761249370872974,0.04090001806616783,1.0193629264831543,
208376,0.011003594845533371,0.029053442180156708,1.0149354934692383,
208476,-0.013655510731041431,0.0013151103630661964,1.0257662534713745,
208576,0.01680319756269455,0.04977520927786827,0.9642757773399353,
208676,-0.0020950972102582455,0.02402324229478836,1.0002479553222656,
208776,0.0030708936974406242,0.03275217488408089,0.9837466478347778,
208876,0.028127597644925117,0.015540895983576775,0.9898921251296997,
208976,0.013384347781538963,0.012445311062037945,1.025423526763916,
209076,0.017912432551383972,0.04585924372076988,1.0092697143554688,
209176,0.00470880838111043,0.025963883846998215,0.9952042698860168,
209276,-0.008588077500462532,0.024863192811608315,1.0037444829940796,
209376,-0.003872248576954007,0.0064035262912511826,1.0128426551818848,
209476,0.0024164412170648575,0.02534937858581543,1.0179692506790161,
209576,0.035800088196992874,0.043083470314741135,0.9812074303627014,
209676,0.002543780254200101,0.045030876994132996,1.0099799633026123,
209776,0.005209673196077347,0.02380647510290146,0.9981319308280945,
209876,-0.0007730132783763111,0.015652840957045555,1.0012717247009277,
209976,0.0067939115688204765,0.03251660242676735,1.004176139831543,
210076,-0.012360642664134502,0.04593867063522339,0.9879207015037537,
210176,0.003955875989049673,0.015446469187736511,1.037794589996338,
210276,0.01384009514003992,0.05850137397646904,1.0094168186187744,
210376,0.019950898364186287,0.0591219887137413,0.9910509586334229,
210476,0.005394455511122942,0.03470176085829735,0.9996642470359802,
210576,0.0002455436624586582,0.014543329365551472,1.0035053491592407,
210676,0.0010332285892218351,0.007643552031368017,0.9659180641174316,
210776,0.002367671113461256,0.04012501239776611,1.0428645610809326,
210876,0.0037357329856604338,0.02056942880153656,1.0070443153381348,
210976,0.008159562014043331,0.020602434873580933,1.0181888341903687,
211076,-0.010808680206537247,0.06578023731708527,0.9948193430900574,
211176,0.016598502174019814,0.10257874429225922,0.9704684019088745,
211276,-0.023423658683896065,0.02863076888024807,1.0170334577560425,
211376,0.015780800953507423,0.04407930746674538,0.9720708131790161,
211476,0.017501408234238625,0.004509094171226025,1.0268691778182983,
211576,0.02485676482319832,0.05792323499917984,0.9924719929695129,
211676,0.016787730157375336,0.030358657240867615,1.024886965751648,
211776,0.006499390583485365,0.01660165563225746,1.0258241891860962,
211876,0.011324363760650158,0.009365645237267017,0.9919830560684204,
211976,0.01628643274307251,0.032856643199920654,0.9849961400032043,
212076,0.022195301949977875,0.024044867604970932,0.9771898984909058,
212176,0.007272318936884403,0.08459512889385223,0.9429539442062378,
212276,0.0032779937610030174,0.009019334800541401,0.987663984298706,
212376,0.011215368285775185,0.03985494747757912,1.0107929706573486,
212476,0.034588318318128586,0.024650678038597107,0.9961087703704834,
212576,0.018068771809339523,0.06805872917175293,1.0001451969146729,
212676,0.0043558827601373196,0.04160698503255844,1.0166890621185303,
212776,0.020126163959503174,0.0358804315328598,0.9908143281936646,
212876,0.019187116995453835,0.04191642627120018,1.057392954826355,
212976,0.01729504205286503,0.022125395014882088,0.9900304079055786,
213076,0.020931893959641457,0.04900873452425003,0.9824244379997253,
213176,0.012348088435828686,0.041719719767570496,0.994045078754425,
213276,0.0031518128234893084,0.057890910655260086,0.9818856120109558,
213376,0.01771225966513157,0.03911614045500755,0.9840073585510254,
213476,0.003207284724339843,0.036203641444444656,0.9964053630828857,
213576,-0.007347091566771269,0.0021464626770466566,1.016323208808899,
213676,0.011057242751121521,0.05177977681159973,0.9459595084190369,
213776,0.039292920380830765,0.020215751603245735,0.9759097695350647,
213876,-0.001963148359209299,0.04557232931256294,0.9750741720199585,
213976,-0.007571010384708643,0.008038530126214027,1.0149013996124268,
214076,-0.0038277539424598217,0.05007234960794449,1.0310689210891724,
214176,-0.020780842751264572,0.0427854023873806,0.9809272289276123,
214276,0.0019056922756135464,-0.006806246470659971,1.0554275512695312,
214376,0.00045074312947690487,0.03381306305527687,0.9906007051467896,
214476,-0.020233154296875,0.02284848690032959,1.0757009983062744,
214576,-0.0008281156769953668,0.04451586306095123,0.9837998151779175,
214676,0.00821318943053484,0.006073702126741409,0.9997866153717041,
214776,-0.0039068260230124,0.011863606050610542,0.987622857093811,
214876,0.017009312286973,-9.043093450600281e-05,0.9990188479423523,
214976,-0.013759315945208073,0.01114494539797306,1.0023967027664185,
215076,0.009489743039011955,0.030790090560913086,1.00847589969635,
215176,0.003979956731200218,0.006365867331624031,1.0413659811019897,
215276,0.005680943839251995,0.0376875177025795,1.008577585220337,
215376,-0.02431507222354412,-0.028233453631401062,1.0511219501495361,
215476,0.0022727809846401215,0.051519595086574554,0.9719014763832092,
215576,0.003002830781042576,0.05296334996819496,1.013346791267395,
215676,0.00988737866282463,0.03159388527274132,1.0235066413879395,
215776,0.02027878351509571,0.032529789954423904,0.974647581577301,
215876,0.014240092597901821,0.07957492023706436,1.0077232122421265,
215976,-0.0049224174581468105,0.00385951716452837,1.0168401002883911,
216076,0.022738507017493248,0.029456736519932747,0.9779049158096313,
216176,0.01056599710136652,-0.002188525628298521,1.0009299516677856,
216276,0.031146777793765068,0.0007205369183793664,1.0005158185958862,
216376,0.002786295721307397,0.05844959244132042,1.0334093570709229,
216476,-0.006589624099433422,0.019097749143838882,1.0092025995254517,
216576,0.0026588153559714556,0.03303857892751694,1.0064541101455688,
216676,0.004623322281986475,0.005001815501600504,1.0456860065460205,
216776,0.02090952917933464,0.0005194156547077,0.9622209668159485,
216876,0.0023984508588910103,0.0372476801276207,0.9679139852523804,
216976,0.031104067340493202,0.02879532240331173,0.9705801606178284,
217076,-0.002989197615534067,0.04729465767741203,0.9761849045753479,
217176,0.027033811435103416,0.05494958534836769,0.9873596429824829,
217276,-0.017675599083304405,-0.0076902625150978565,1.0098034143447876,
217376,-0.001251020934432745,0.01907101459801197,1.0130914449691772,
217476,0.014674598351120949,0.09300613403320312,0.9695598483085632,
217576,0.0029732154216617346,0.024232584983110428,1.0061886310577393,
217676,0.016257282346487045,0.03755742311477661,1.010764241218567,
217776,0.006396532990038395,0.03403947874903679,0.972586989402771,
217876,0.006829068996012211,0.012106872163712978,0.9924745559692383,
217976,0.024542396888136864,0.030923962593078613,0.9931402802467346,
218076,0.000751062179915607,0.05475452542304993,0.9963626265525818,
218176,-0.0030656910967081785,-0.04777824878692627,1.0334274768829346,
218276,0.012150496244430542,0.039651237428188324,0.9892411231994629,
218376,-0.0020253497641533613,0.0424417108297348,0.9833142161369324,
218476,0.003166445065289736,0.010992497205734253,0.9928540587425232,
218576,0.007271777838468552,0.03763258457183838,1.0118032693862915,
218676,0.007894579321146011,0.014823411591351032,1.0206806659698486,
218776,0.018029700964689255,0.01579570211470127,1.0115116834640503,
218876,-0.011482711881399155,0.023920170962810516,0.9676616787910461,
218976,0.022936690598726273,0.056766070425510406,0.9972028732299805,
219076,0.0026881250087171793,0.019003666937351227,0.9934441447257996,
219176,-0.0025976416654884815,0.03811057284474373,0.9771748185157776,
219276,-0.000430632964707911,0.02863810583949089,1.0167744159698486,
219376,0.038892727345228195,0.10315776616334915,0.9497780799865723,
219476,-0.015581661835312843,-0.04268553853034973,1.008920431137085,
219576,0.020170997828245163,0.012063723988831043,1.0041637420654297,
219676,-0.011540316976606846,-0.023285405710339546,1.0243723392486572,
219776,0.010328476317226887,0.008045154623687267,1.0081976652145386,
219876,-0.012195396237075329,0.01121616829186678,1.0329352617263794,
219976,-0.000770469952840358,0.029452530667185783,0.989770233631134,
220076,0.030577458441257477,0.032925743609666824,0.9761376976966858,
220176,0.012330902740359306,0.03320726007223129,1.0000677108764648,
220276,0.022589007392525673,0.02412131242454052,1.0140384435653687,
220376,0.007369173690676689,0.032557446509599686,1.0202194452285767,
220476,0.004158716183155775,0.039375532418489456,1.0143914222717285,
220576,0.03761441260576248,0.056859325617551804,0.9936321377754211,
220676,0.029336538165807724,0.06112457811832428,0.9615738987922668,
220776,0.0011830322910100222,0.010260067880153656,0.9952074289321899,
220876,0.02369573898613453,0.04423440992832184,0.9754763841629028,
220976,-0.005051703192293644,0.03016631305217743,0.9629388451576233,
221076,0.019734738394618034,0.08734380453824997,1.008380651473999,
221176,0.004902813117951155,0.030317725613713264,1.025814414024353,
221276,0.016622694209218025,0.029711954295635223,1.015182614326477,
221376,0.006232652813196182,0.02575666457414627,1.0119143724441528,
221476,-0.001300754607655108,0.025282982736825943,1.0082075595855713,
221576,-0.004176638089120388,0.043654996901750565,1.0250115394592285,
221676,-0.0023977174423635006,0.027075374498963356,0.9666075110435486,
221776,-0.0042503089644014835,0.03561759740114212,1.0243923664093018,
221876,-0.0055888001807034016,0.05538615584373474,0.9537612199783325,
221976,-0.0060907634906470776,-0.006929966155439615,1.0053539276123047,
222076,-0.001485531684011221,0.02383953146636486,1.0298227071762085,
222176,0.006710782181471586,0.015845434740185738,0.9940339922904968,
222276,-0.005451700650155544,-0.022843273356556892,1.0422593355178833,
222376,0.022782063111662865,0.036169204860925674,0.965312123298645,
222476,0.005725544411689043,0.03340427950024605,0.9475608468055725,
222576,0.008713620714843273,0.057959459722042084,0.9891359806060791,
222676,0.005270452704280615,0.0004688984772656113,1.0251046419143677,
222776,0.0038115205243229866,0.01267002709209919,1.0377761125564575,
222876,0.031477756798267365,0.05096293240785599,0.9693256616592407,
222976,0.012329216115176678,0.0157259963452816,1.0029126405715942,
223076,0.006528637371957302,0.007238677237182856,1.0171549320220947,
223176,0.01315795537084341,0.024936217814683914,1.0269672870635986,
223276,0.001567091909237206,0.06509373337030411,1.0120117664337158,
223376,0.0038777017034590244,0.014252748340368271,0.9781628847122192,
223476,0.016499146819114685,0.02669382654130459,1.0000211000442505,
223576,-0.014342069625854492,-0.01832500472664833,1.0146580934524536,
223676,0.015966452658176422,0.016340069472789764,0.9761234521865845,
223776,0.010349257849156857,-0.006722240708768368,1.0095914602279663,
223876,-0.013175660744309425,-0.030517205595970154,1.0267724990844727,
223976,0.005044338759034872,0.09113877266645432,1.0103869438171387,
224076,0.022780505940318108,0.012971825897693634,0.970126211643219,
224176,0.008576619438827038,0.019858649000525475,1.0116386413574219,
224276,0.02860584296286106,0.08681152760982513,1.030747413635254,
224376,0.015554252080619335,0.015115448273718357,0.9860785007476807,
224476,0.016152042895555496,0.033532820641994476,0.9779583811759949,
224576,0.007137729786336422,0.07180630415678024,0.9913700222969055,
224676,0.04077977314591408,0.06673598289489746,0.9260656237602234,
224776,0.02257281355559826,0.029415646567940712,1.0047372579574585,
224876,0.023466983810067177,0.06315409392118454,0.9876782298088074,
224976,0.022658981382846832,0.009727551601827145,0.9820109605789185,
225076,-0.00427103228867054,-0.005147015675902367,1.017545461654663,
225176,-0.015873342752456665,0.01687951385974884,1.015089750289917,
225276,0.010533969849348068,0.015032585710287094,0.9971347451210022,
225376,0.007944499142467976,0.019735651090741158,1.0115216970443726,
225476,-0.02163638360798359,-0.032909758388996124,1.0479003190994263,
225576,0.006592145189642906,0.09771728515625,0.975684404373169,
225676,0.008520038798451424,0.023264393210411072,1.0065839290618896,
225776,-0.006201017647981644,0.024530380964279175,0.998004674911499,
225876,0.021337663754820824,0.07131992280483246,0.9507216215133667,
225976,0.014715494588017464,0.05529562756419182,1.0123096704483032,
226076,-0.02257460728287697,0.01007450558245182,1.0025807619094849,
226176,0.006602786015719175,0.01630273461341858,1.002900242805481,
226276,-0.014409017749130726,0.005358346737921238,1.019118309020996,
226376,0.03976712003350258,0.07138333469629288,0.9914538860321045,
226476,0.018132228404283524,0.04314393550157547,0.969077467918396,
226576,0.0024575276765972376,0.019838832318782806,0.981030285358429,
226676,0.01108921691775322,0.08353707939386368,0.9574195742607117,
226776,0.012461152859032154,0.09099911898374557,1.023459792137146,
226876,0.02946498617529869,0.01835295744240284,1.0066492557525635,
226976,0.03550463914871216,0.0528511144220829,0.9591987729072571,
227076,-0.006033369340002537,0.006785752717405558,1.0349583625793457,
227176,0.008997414261102676,0.048240140080451965,0.9625813364982605,
227276,0.0032958330120891333,0.04132553189992905,0.9914014339447021,
227376,0.002637478057295084,0.05950623005628586,1.0009477138519287,
227476,0.004430432803928852,0.030788158997893333,1.0269497632980347,
227576,-0.018822694197297096,-0.05603952705860138,1.0531721115112305,
227676,0.003873014822602272,0.02960566058754921,0.9893724322319031,
227776,0.005607364699244499,0.011708118952810764,1.0302000045776367,
227876,-0.004591858945786953,0.005260657053440809,1.0279568433761597,
227976,0.009110077284276485,0.08674892783164978,0.9904801845550537,
228076,0.003466695547103882,0.055801939219236374,1.0080887079238892,
228176,-0.01972888596355915,0.02876705676317215,1.0452353954315186,
228276,-0.010999264195561409,0.0286259725689888,1.0297268629074097,
228376,0.02837332710623741,0.014438353478908539,0.954278826713562,
228476,0.022413726896047592,0.04081160947680473,0.9702250957489014,
228576,0.016699600964784622,0.052885208278894424,0.9512163996696472,
228676,0.012907165102660656,0.04943251982331276,0.9340853095054626,
228776,0.007883032783865929,0.06879870593547821,1.0208051204681396,
228876,-0.008311238139867783,0.030619941651821136,1.0341061353683472,
228976,0.02680092118680477,0.04389175400137901,0.9993892312049866,
229076,-0.001081187860108912,0.00311305676586926,1.0120617151260376,
229176,0.015393632464110851,0.0271795392036438,0.9903581738471985,
229276,0.02309754677116871,0.045263733714818954,0.970071017742157,
229376,-0.003126283409073949,0.013516479171812534,1.029596209526062,
229476,0.02119329385459423,0.018572527915239334,1.0202866792678833,
229576,0.01545050460845232,0.02308190055191517,1.021291732788086,
229676,-0.0013491318095475435,0.07341060787439346,1.0261658430099487,
229776,-0.00638236477971077,0.017372697591781616,1.0317351818084717,
229876,0.021021168678998947,0.022571738809347153,0.9712098240852356,
229976,-0.0043174815364181995,0.04545162245631218,1.0051755905151367,
230076,0.007079377304762602,0.05701601132750511,0.9670278429985046,
230176,0.010166657157242298,0.03816485404968262,0.9810274839401245,
230276,-0.0027772439643740654,0.04640190675854683,1.0226072072982788,
230376,0.0019314492819830775,0.029233645647764206,1.0278362035751343,
230476,-0.005467578768730164,0.00707463501021266,0.964031994342804,
230576,0.004357478115707636,0.006584945134818554,1.0030736923217773,
230676,0.017332490533590317,0.057242684066295624,0.996658980846405,
230776,0.008678426034748554,0.014501246623694897,0.9992047548294067,
230876,0.02433953806757927,0.03211836889386177,0.9692589044570923,
230976,-0.012375417165458202,0.07588190585374832,0.9969251155853271,
231076,-0.0012920181034132838,0.015114732086658478,0.9949237108230591,
231176,-0.0030517408158630133,0.05717170611023903,0.9818078875541687,
231276,0.011561287567019463,0.01727718487381935,1.010907530784607,
231376,0.016225077211856842,0.06718254834413528,0.9580103754997253,
231476,-0.006346197333186865,0.029449546709656715,0.9986764788627625,
231576,0.001835332252085209,0.06062878668308258,1.0148016214370728,
231676,-0.006918745581060648,0.031125035136938095,1.0026190280914307,
231776,0.011570915579795837,0.016955513507127762,1.0045088529586792,
231876,0.007839511148631573,0.033192697912454605,1.0265636444091797,
231976,0.03302442282438278,0.050370484590530396,0.9697089195251465,
232076,0.014407076872885227,0.024429887533187866,1.0171514749526978,
232176,-0.00024895317619666457,0.014504354447126389,1.0256150960922241,
232276,0.009627900086343288,0.011361113749444485,0.9888675808906555,
232376,-0.01600298099219799,0.013192194513976574,1.0187971591949463,
232476,0.015377258881926537,0.021189114078879356,1.0585229396820068,
232576,0.026355495676398277,0.054416850209236145,0.9941614270210266,
232676,0.005791247356683016,0.008693832904100418,1.031224250793457,
232776,0.0129363052546978,0.01813581772148609,0.9831351041793823,
232876,0.029131703078746796,0.018667878583073616,0.9831197261810303,
232976,-0.014002365060150623,0.007344954181462526,1.0249524116516113,
233076,0.0014978162944316864,-0.005371526349335909,1.0082987546920776,
233176,0.03128310292959213,0.022626589983701706,0.9672574400901794,
233276,0.03446746990084648,0.03463105112314224,1.008853554725647,
233376,0.048998501151800156,0.028959985822439194,0.9583314061164856,
233476,0.012735772877931595,0.029937690123915672,0.9846678376197815,
233576,-0.017138713970780373,-0.0008621657034382224,0.9935723543167114,
233676,-0.004684444051235914,0.045969244092702866,0.9976559281349182,
233776,0.00823948159813881,0.020456939935684204,0.9726611375808716,
233876,0.005639201030135155,0.024673275649547577,1.0005810260772705,
233976,0.0029297401197254658,0.014081595465540886,1.010858416557312,
234076,-0.005965210497379303,-0.04720678552985191,1.0658973455429077,
234176,0.014347666874527931,0.05192255601286888,0.9937829971313477,
234276,0.0029622369911521673,0.06559263914823532,1.0041415691375732,
234376,-0.0038804158102720976,0.0217924565076828,0.9951956868171692,
234476,0.017332514747977257,0.018093623220920563,0.9819619059562683,
234576,0.029294544830918312,0.01041600201278925,0.9712687134742737,
234676,-0.004648348316550255,-0.0010522648226469755,0.9984509944915771,
234776,0.005078040529042482,0.057119403034448624,1.0107802152633667,
234876,-0.0035275262780487537,-0.007361898198723793,1.0023398399353027,
234976,-0.014816896989941597,0.04439796879887581,1.0479235649108887,
235076,-0.0014244037447497249,0.006052774842828512,1.0051394701004028,
235176,0.0027054096572101116,0.025267919525504112,1.0364418029785156,
235276,-0.0023239196743816137,-0.04488372430205345,1.0235916376113892,
235376,0.0016415100544691086,0.0547579824924469,1.0134928226470947,
235476,0.01183150615543127,0.009073659777641296,0.9847317934036255,
235576,-0.0021058199927210808,0.03412477299571037,0.9717133641242981,
235676,0.017181165516376495,0.05241444706916809,0.9838009476661682,
235776,-0.01262567937374115,0.0025650241877883673,1.0080643892288208,
235876,0.01894882507622242,0.020247207954525948,0.9978588223457336,
235976,0.004494162276387215,0.050354186445474625,0.9803203344345093,
236076,-0.013421548530459404,0.011058444157242775,1.0117298364639282,
236176,-0.016044463962316513,0.07754122465848923,1.0018805265426636,
236276,0.0034099130425602198,0.04010280221700668,1.0318232774734497,
236376,0.02719428949058056,0.04184539243578911,1.023913860321045,
236476,-0.00349445641040802,0.062403108924627304,1.0366226434707642,
236576,0.010877449065446854,0.006741912104189396,1.0253956317901611,
236676,0.002365663181990385,0.032514747232198715,0.9870619773864746,
236776,0.017395038157701492,0.024222297593951225,1.0338128805160522,
236876,0.002345832297578454,0.03411572054028511,1.0101555585861206,
236976,-0.005470447242259979,0.03213174268603325,0.9987179040908813,
237076,0.020336981862783432,0.08662485331296921,0.9723680019378662,
237176,-0.009645270183682442,0.02237737737596035,1.0486551523208618,
237276,-0.00039830629248172045,0.07698967307806015,0.9557940363883972,
237376,0.028243163600564003,0.03233789652585983,0.9727715253829956,
237476,-0.0022348889615386724,0.021202122792601585,0.9918771982192993,
237576,-0.004883245564997196,0.03635398671030998,0.981021523475647,
237676,-0.03224218264222145,0.01998010464012623,1.0201184749603271,
237776,-6.747519364580512e-05,0.027343712747097015,1.005991816520691,
237876,-0.0012393848737701774,0.059767451137304306,0.993033230304718,
237976,-0.012242371216416359,-0.00027308709104545414,1.0801918506622314,
238076,0.021610235795378685,0.04031682014465332,0.9762656092643738,
238176,-0.004302063956856728,0.08862863481044769,1.027174711227417,
238276,0.004047071095556021,-0.0008275237632915378,1.0035947561264038,
238376,0.014649425633251667,0.043236274272203445,1.0134752988815308,
238476,0.015546170994639397,0.02649114467203617,1.001509666442871,
238576,-0.00873660109937191,0.006739378906786442,1.0131523609161377,
238676,0.0008271700935438275,0.024513036012649536,1.0089877843856812,
238776,0.006599336862564087,0.04628834128379822,0.9888540506362915,
238876,0.007747866213321686,0.05582099035382271,0.9969649910926819,
238976,0.025593485683202744,0.0181892067193985,1.0150976181030273,
239076,0.016244715079665184,0.0031641835812479258,1.0067520141601562,
239176,0.03940344229340553,0.035873785614967346,0.9972244501113892,
239276,-0.012129363603889942,-0.007550019770860672,1.045627236366272,
239376,0.02040093205869198,0.028457580134272575,0.9791595339775085,
239476,0.008928422816097736,0.03748733550310135,0.9828218817710876,
239576,-0.0018049099016934633,0.004396006464958191,1.0033321380615234,
239676,-0.014027569442987442,0.027018874883651733,1.011895775794983,
239776,-0.004728961270302534,0.01057789009064436,1.036682367324829,
239876,-0.0037738229148089886,0.04703469201922417,0.997107207775116,
239976,-0.01718696765601635,0.03938126936554909,1.0108423233032227,
240076,0.002239492954686284,0.021518660709261894,1.0001487731933594,
240176,0.020658504217863083,0.013133516535162926,0.9851423501968384,
240276,-0.006652831099927425,0.03511058911681175,0.9900863170623779,
240376,-0.004176232498139143,0.021182525902986526,1.000349998474121,
240476,0.012752111069858074,0.051764268428087234,0.9831642508506775,
240576,-0.008057143539190292,0.046851906925439835,0.9870582222938538,
240676,-0.0021618155296891928,0.07383935153484344,0.9769660234451294,
240776,-5.249360765446909e-05,0.058426205068826675,0.9875718355178833,
240876,0.014572405256330967,0.067634716629982,1.0128916501998901,
240976,0.002625156193971634,0.03158150613307953,1.059373378753662,
241076,0.004924781620502472,0.01578727923333645,1.0138378143310547,
241176,0.016569750383496284,0.06263445317745209,0.9901183843612671,
241276,0.0057370467111468315,0.014985735528171062,1.005501389503479,
241376,-0.009521285071969032,0.02378242090344429,0.994414210319519,
241476,-0.012573521584272385,0.017974717542529106,0.9846245050430298,
241576,0.022029763087630272,0.03048337996006012,0.9991859793663025,
241676,-0.011686203069984913,0.02889435738325119,1.0106955766677856,
241776,-0.008579043671488762,0.022103797644376755,1.0132111310958862,
241876,-0.004993605427443981,0.03743711858987808,1.0005879402160645,
241976,0.025546923279762268,0.02051365375518799,0.9855368733406067,
242076,-0.01553280744701624,-0.009181210771203041,1.0181626081466675,
242176,0.011190887540578842,0.04964347556233406,0.9774755239486694,
242276,-0.013729226775467396,0.0064965528436005116,1.006187915802002,
242376,-0.0027737130876630545,0.057107482105493546,1.026913046836853,
242476,0.012319308705627918,0.03629082813858986,0.9832779765129089,
242576,-0.0018123157788068056,0.00595961743965745,1.031062364578247,
242676,0.003894349792972207,-0.010553451254963875,1.0358067750930786,
242776,-0.037081602960824966,-0.032871462404727936,1.0457191467285156,
242876,0.02589588798582554,0.028106577694416046,0.9968670606613159,
242976,0.000982732861302793,0.05306528881192207,0.9685420989990234,
243076,-0.021489687263965607,0.017555298283696175,1.029500961303711,
243176,-0.01636802963912487,0.03159308061003685,1.0622637271881104,
243276,-0.0007107004057615995,-0.00047906837426126003,1.0152339935302734,
243376,-0.0070409588515758514,0.05619683861732483,0.987023651599884,
243476,0.005761095322668552,0.004001309629529715,0.995610237121582,
243576,0.01860353909432888,0.06546882539987564,0.9841411113739014,
243676,0.005464497022330761,0.027142412960529327,0.9983549118041992,
243776,0.011864841915667057,0.01682538352906704,0.9995262622833252,
243876,-0.008102547377347946,0.04763700067996979,0.9749323725700378,
243976,0.028625458478927612,0.08153841644525528,0.9729136228561401,
244076,0.013171903789043427,0.025443371385335922,1.031780481338501,
244176,-0.007843448780477047,-0.0012361037079244852,1.0514492988586426,
244276,0.019026605412364006,0.0037478567101061344,0.9811226725578308,
244376,0.0026056997012346983,0.01449816208332777,0.9971043467521667,
244476,-0.0036205595824867487,0.014467666856944561,0.962639331817627,
244576,0.025579184293746948,0.013375893235206604,0.9712855815887451,
244676,0.011346546933054924,0.02165796421468258,1.0104577541351318,
244776,0.01925109140574932,0.08842957019805908,0.9695597887039185,
244876,-0.007684113457798958,0.02660580724477768,0.9914548397064209,
244976,0.006002137437462807,0.022875241935253143,1.0190411806106567,
245076,0.022830354049801826,0.008904548361897469,1.0538969039916992,
245176,0.01315130852162838,0.03411814197897911,1.0073778629302979,
245276,-0.013359421864151955,0.0349491722881794,0.9854806661605835,
245376,0.00234984396956861,0.02697688154876232,0.9877021312713623,
245476,-0.01254957728087902,-0.03017166256904602,0.9963362812995911,
245576,0.002259782049804926,-0.0022938642650842667,0.9890974164009094,
245676,0.013768255710601807,0.08662199229001999,0.9736767411231995,
245776,0.011615312658250332,0.03358609601855278,0.9995309710502625,
245876,-0.017445599660277367,-0.0061054835096001625,1.0246859788894653,
245976,0.027808591723442078,0.030428331345319748,1.0008562803268433,
246076,0.015110158361494541,0.030382011085748672,0.9966097474098206,
246176,0.0013001180486753583,0.021968966349959373,1.042127251625061,
246276,0.003970119170844555,0.058580510318279266,0.9715914726257324,
246376,0.009726247750222683,0.02699960581958294,1.0010027885437012,
246476,-0.007430605124682188,0.037730731070041656,0.9815811514854431,
246576,0.029232079163193703,0.03693252056837082,0.9956310391426086,
246676,0.008591081947088242,-0.01370525173842907,1.034242033958435,
246776,0.04686062037944794,0.06725979596376419,0.9824490547180176,
246876,-0.024725250899791718,-0.0015685184625908732,1.055408000946045,
246976,0.03462740033864975,0.0384836383163929,0.9887032508850098,
247076,-0.002492842497304082,0.027926404029130936,1.0171316862106323,
247176,-0.01635017804801464,0.0308072492480278,0.989361047744751,
247276,-0.004313544370234013,0.00359888537786901,1.0152543783187866,
247376,0.013058388605713844,0.05729973316192627,0.9807599186897278,
247476,-0.004503853619098663,0.03260505199432373,0.971518874168396,
247576,-0.009541522711515427,0.02334451489150524,1.0126248598098755,
247676,-0.0050527420826256275,0.05705563351511955,0.9932482242584229,
247776,-0.00936571229249239,0.020344804972410202,1.042170763015747,
247876,0.020701291039586067,0.05832524970173836,0.969260036945343,
247976,-0.01160568930208683,0.029722843319177628,0.9904462695121765,
248076,-0.0099260862916708,0.05650103837251663,1.0241581201553345,
248176,-0.013745443895459175,0.02173096127808094,1.0110846757888794,
248276,-0.0075377244502305984,0.04225214943289757,0.9700657725334167,
248376,0.011997602880001068,0.034190546721220016,1.0086301565170288,
248476,0.006612072233110666,0.07747528702020645,0.9988473653793335,
248576,0.00012489609071053565,0.024144304916262627,0.9987269639968872,
248676,0.01697590760886669,0.03462933376431465,1.0390981435775757,
248776,-0.011247155256569386,0.051061540842056274,0.9536243677139282,
248876,-0.014188187196850777,0.03282370790839195,1.0066041946411133,
248976,-0.006729502696543932,0.02059161104261875,1.0348254442214966,
249076,0.002395942574366927,0.08745250105857849,1.0226269960403442,
249176,-0.011756346561014652,-0.009966338984668255,1.0092822313308716,
249276,-0.0018391442717984319,0.0794994980096817,0.9804003834724426,
249376,-0.006065584719181061,0.023670176044106483,1.007108211517334,
249476,-0.0030566302593797445,0.04417930543422699,1.020276665687561,
249576,-0.008420208469033241,0.049120187759399414,1.0077850818634033,
249676,0.023615630343556404,0.07652638852596283,0.9684522151947021,
249776,0.0019260054687038064,0.015123087912797928,1.0024747848510742,
249876,0.0076439459808170795,0.04922381415963173,0.9677492380142212,
249976,0.0017090844921767712,-0.007503528613597155,1.0075961351394653,
250076,0.01041016448289156,0.020881472155451775,1.027130126953125,
250176,0.005721640773117542,0.045489441603422165,0.9962206482887268,
250276,-0.021550292149186134,-0.010173024609684944,1.0182340145111084,
250376,-0.0242513045668602,-0.011202112771570683,1.0194023847579956,
250476,-0.02198733575642109,0.0035314327105879784,1.0294897556304932,
250576,-0.00025852854014374316,0.047599852085113525,1.0309120416641235,
250676,-0.005441529210656881,0.0014022954273968935,0.9920862913131714,
250776,0.005138656590133905,-0.010823216289281845,0.9963914752006531,
250876,0.009169511497020721,0.01334445085376501,1.009594440460205,
250976,0.023358143866062164,0.0177155714482069,1.0062137842178345,
251076,-0.0063225505873560905,-0.015553297474980354,1.0498307943344116,
251176,-0.004508469719439745,0.059627071022987366,0.9746217727661133,
251276,0.03849745914340019,0.04987840726971626,0.9750741720199585,
251376,-0.008807002566754818,0.03736153990030289,0.9970411658287048,
251476,0.027526071295142174,0.011347072198987007,1.0203434228897095,
251576,-0.0008046856382861733,-0.0293363519012928,1.0215343236923218,
251676,-0.004966710228472948,0.03155788034200668,1.016463279724121,
251776,0.030194571241736412,0.10916084796190262,0.9533188343048096,
251876,0.008791227824985981,0.03529615327715874,1.0361297130584717,
251976,0.0038700567092746496,-0.022969726473093033,1.0167748928070068,
252076,-0.004568882752209902,0.04008661210536957,0.9854457974433899,
252176,0.0022460310719907284,0.03659914806485176,0.9813602566719055,
252276,-0.013761854730546474,-0.017638979479670525,1.0247246026992798,
252376,-0.011142167262732983,0.027355650439858437,1.0098698139190674,
252476,-0.0038762418553233147,0.03313625976443291,1.0005162954330444,
252576,-0.006676760036498308,0.0018824031576514244,1.0463109016418457,
252676,0.014263640157878399,0.08233733475208282,1.0209323167800903,
252776,0.023467829450964928,0.029367033392190933,1.0246142148971558,
252876,-0.021984213963150978,0.020549295470118523,1.0263772010803223,
252976,-0.0012522694887593389,0.025416163727641106,0.9946559071540833,
253076,0.0009845707099884748,0.02160780131816864,0.9989766478538513,
253176,0.03850092366337776,0.04537497088313103,0.9627517461776733,
253276,-0.003424273570999503,0.026396967470645905,1.0182865858078003,
253376,-0.004781374242156744,0.017658181488513947,1.0694533586502075,
253476,0.014622928574681282,0.03971126303076744,0.9489413499832153,
253576,0.006224696058779955,0.00320317130535841,1.0124276876449585,
253676,0.019470015540719032,0.0003101825714111328,1.0303629636764526,
253776,0.03491607680916786,0.02984141930937767,0.9789305925369263,
253876,0.006365621462464333,0.03362195938825607,0.9781211614608765,
253976,-0.01405886746942997,0.08234018832445145,1.0313180685043335,
254076,-0.02392476238310337,-0.0008959402330219746,1.0285464525222778,
254176,-0.0019377392018213868,0.015652325004339218,0.9922550916671753,
254276,-0.006966732908040285,0.03251707926392555,0.9816853404045105,
254376,0.00015350664034485817,0.020178519189357758,1.041111707687378,
254476,0.010059704072773457,0.042509060353040695,0.9954278469085693,
254576,-0.011453439481556416,-0.009896841831505299,1.0330270528793335,
254676,0.021637223660945892,0.034182753413915634,0.9603802561759949,
254776,-0.011521879583597183,0.05373028665781021,1.0085893869400024,
254876,-0.005240756552666426,0.07719653844833374,1.0111333131790161,
254976,-0.02857864648103714,-0.010621141642332077,0.985413134098053,
255076,0.02540837600827217,0.009278632700443268,0.9715321063995361,
255176,-0.0025256399530917406,0.08107510954141617,0.9911968111991882,
255276,0.009104417636990547,0.05034199729561806,1.0224131345748901,
255376,0.01486212108284235,0.09543256461620331,0.9655718803405762,
255476,-0.0065522389486432076,0.0010266114259138703,1.005135416984558,
255576,0.013046606443822384,0.031818751245737076,0.9711351990699768,
255676,-0.009222100488841534,0.060966089367866516,1.001214861869812,
255776,0.008100648410618305,0.09277166426181793,0.9983355402946472,
255876,0.010317748412489891,0.012151166796684265,1.0330713987350464,
255976,-0.012333212420344353,0.04905693978071213,1.0156841278076172,
256076,-0.0007007463136687875,-0.015383546240627766,1.0094072818756104,
256176,0.015714377164840698,0.01673271879553795,0.9634366631507874,
256276,-0.02150588110089302,-0.016574334353208542,1.0369384288787842,
256376,-0.0037483179476112127,0.05358137562870979,0.9797762036323547,
256476,0.00836204644292593,0.012422398664057255,0.9545592665672302,
256576,0.0038293784018605947,0.06154303252696991,0.9758038520812988,
256676,-0.02350303716957569,-0.02555389702320099,1.044416069984436,
256776,0.02066839672625065,0.006081422790884972,0.9920912981033325,
256876,-0.013167074881494045,-0.008679091930389404,0.9959242939949036,
256976,0.007547157816588879,0.020747782662510872,0.9583905339241028,
257076,-0.017518028616905212,0.03488943725824356,0.9859719276428223,
257176,0.03142547979950905,0.0597962960600853,0.9877158403396606,
257276,-0.001846885192207992,0.02607595920562744,0.9951231479644775,
257376,-0.012746443971991539,0.04560112580657005,0.9925210475921631,
257476,0.0013610634487122297,-0.0037073330022394657,1.0507811307907104,
257576,0.011722310446202755,0.01845654472708702,0.9872345924377441,
257676,-0.01339360699057579,-0.009837103076279163,1.0172765254974365,
257776,0.00805958453565836,0.013554305769503117,0.9983149766921997,
257876,-0.0033170334063470364,0.047368232160806656,1.0035189390182495,
257976,-0.012632681988179684,0.011290758848190308,1.0343985557556152,
258076,-0.008150923065841198,0.005533452611416578,0.9768065214157104,
258176,-0.01699535734951496,-0.01996072195470333,1.0530307292938232,
258276,-0.0002995969553012401,-0.0018687779083848,0.9843689203262329,
258376,0.010036971420049667,-0.019448308274149895,0.9763349890708923,
258476,0.024737199768424034,0.03547189012169838,0.9759207367897034,
258576,-0.01662415824830532,-0.019628558307886124,1.0315618515014648,
258676,0.0013913802104070783,-0.012861881405115128,1.0240418910980225,
258776,-0.014139942824840546,0.04883275926113129,1.0275698900222778,
258876,-0.017644081264734268,0.031769201159477234,0.9936440587043762,
258976,-0.00968564860522747,0.06525003165006638,0.9622080326080322,
259076,0.012691634707152843,0.023362623527646065,1.02018404006958,
259176,-0.0044350097887218,-0.024557076394557953,1.0399667024612427,
259276,0.005002643913030624,0.029507173225283623,0.9791603088378906,
259376,0.03283168375492096,0.08615323901176453,0.9672067761421204,
259476,-0.003977169748395681,0.012437181547284126,1.041305422782898,
259576,0.004899562336504459,0.021756546571850777,1.0094497203826904,
259676,-0.0015572422416880727,0.0037520448677241802,1.030930519104004,
259776,-0.005405095871537924,-0.008313169702887535,0.9684222340583801,
259876,-0.0017638409044593573,0.015292787924408913,1.0259824991226196,
259976,0.0006719967350363731,0.0354766808450222,0.9768824577331543,
260076,0.004134251270443201,0.056849509477615356,1.0054019689559937,
260176,-0.01823119819164276,0.040536388754844666,1.022193431854248,
260276,0.0037537121679633856,0.06345830112695694,0.99383544921875,
260376,-0.017995528876781464,0.031421735882759094,1.0107039213180542,
260476,0.010160914622247219,0.011656676419079304,0.9338527321815491,
260576,-0.004890049807727337,0.07753676921129227,1.0006828308105469,
260676,-0.0025631191674619913,0.0748339593410492,0.985220730304718,
260776,-0.006010147742927074,0.02847258746623993,1.0016944408416748,
260876,-0.0070381565019488335,0.030224155634641647,1.061218023300171,
260976,-0.004062201362103224,0.06394600123167038,0.9912731051445007,
261076,-0.000490368518512696,0.05897461622953415,1.0350371599197388,
261176,-0.0007688503246754408,0.03960708528757095,1.0378143787384033,
261276,-0.0015836779493838549,0.01524041686207056,1.024695873260498,
261376,-0.008817414753139019,0.02886696718633175,0.9931294918060303,
261476,-0.008035538718104362,0.011351977474987507,1.0431479215621948,
261576,0.012975601479411125,0.02426539920270443,1.0254356861114502,
261676,-0.0006919847219251096,0.002186479512602091,0.9762071371078491,
261776,-0.008663449436426163,0.04841176047921181,0.9852892160415649,
261876,-0.0035776966251432896,0.0017555037047713995,0.9462340474128723,
261976,0.03018144518136978,-0.005804765969514847,1.001702070236206,
262076,0.0166852418333292,-0.004046729300171137,1.0309867858886719,
262176,-0.006532442755997181,0.010564702562987804,1.0216395854949951,
262276,0.027645817026495934,0.016895433887839317,0.9999042749404907,
262376,-0.022154806181788445,-0.04545927047729492,1.0532920360565186,
262476,0.019482320174574852,0.018038295209407806,0.9754897952079773,
262576,-0.03239189088344574,-0.011523846536874771,1.0286552906036377,
262676,-0.019595947116613388,-0.01065873447805643,1.0162124633789062,
262776,-0.0015789238968864083,0.014682289212942123,1.0106927156448364,
262876,-0.009060927666723728,0.04916876181960106,0.9919685125350952,
262976,-0.0014142909785732627,0.06631749123334885,0.9732406139373779,
