time,acc.x,acc.y,acc.z,
303612,-0.015096934512257576,-0.010884732939302921,1.0145184993743896,
303622,-0.015314895659685135,-0.017781874164938927,1.0211961269378662,
303632,-0.005154644604772329,0.02885373681783676,0.9906156063079834,
303642,0.00880554597824812,0.06112374737858772,0.9774964451789856,
303652,-0.00948134995996952,0.011881494894623756,0.981641411781311,
303662,-0.015320027247071266,0.014014387503266335,0.9599561095237732,
303672,0.025097237899899483,0.05364535376429558,0.9795212745666504,
303682,-0.00805531907826662,0.053963977843523026,0.9920661449432373,
303692,0.006564829498529434,0.08731883019208908,0.9767172336578369,
303702,-0.03762016445398331,0.01040074322372675,1.0375607013702393,
303712,-0.01939007267355919,-0.004459861200302839,0.9780142307281494,
303722,0.002236494794487953,0.010301763191819191,0.9610275030136108,
303732,-0.0027835650835186243,-0.0019177742069587111,0.9732829928398132,
303742,-0.007095505483448505,-0.0014692035038024187,0.9721755981445312,
303752,-0.002682256978005171,0.038604892790317535,0.9467074871063232,
303762,0.013353132642805576,0.015190549194812775,0.9760497808456421,
303772,-0.03792580962181091,-0.010990645736455917,1.004116415977478,
303782,0.009475103579461575,-0.013192104175686836,0.9704136848449707,
303792,-0.010004911571741104,0.0730828046798706,1.0011396408081055,
303802,-0.013037478551268578,0.02238341234624386,1.006287693977356,
303812,0.00045756896724924445,0.0671028345823288,0.9798197150230408,
303822,0.0027207599487155676,0.0016761076403781772,1.0265636444091797,
303832,-0.01654672436416149,0.03317441791296005,1.0192433595657349,
303842,0.0030818283557891846,0.00973951630294323,1.0096601247787476,
303852,-0.003531453665345907,0.0348094180226326,0.9964032769203186,
303862,-0.011487171985208988,0.007314261049032211,0.9914494752883911,
303872,-0.03046472929418087,-0.005142686888575554,1.0166603326797485,
303882,-0.004183762241154909,-0.0027077419217675924,0.9715602993965149,
303892,-0.0006223476957529783,-0.022823762148618698,1.0160402059555054,
303902,-0.018165545538067818,0.04800601303577423,1.0333564281463623,
303912,-0.02156177908182144,0.03640541434288025,1.002465009689331,
303922,-0.010183237493038177,0.08147154748439789,0.961075484752655,
303932,0.022845232859253883,0.03814569488167763,1.0334515571594238,
303942,-0.012614985927939415,-0.014484498649835587,1.0558887720108032,
303952,-0.001260155695490539,-0.01883259043097496,1.0048662424087524,
303962,-0.01163475587964058,0.08509964495897293,0.9785079956054688,
303972,0.00833988282829523,-0.00232845195569098,0.988357424736023,
303982,-0.01810845173895359,-0.00163015048019588,1.0099860429763794,
303992,0.0023324412759393454,-0.0018573921406641603,1.006131887435913,
304002,-0.005733058787882328,0.02095036581158638,0.9932020902633667,
304012,-0.010034412145614624,0.02408815734088421,0.9787819981575012,
304022,-0.01581934280693531,0.015108550898730755,1.0197012424468994,
304032,-0.006695628631860018,0.014948838390409946,0.986265242099762,
304042,0.008318464271724224,0.0006462694727815688,0.9975332021713257,
304052,-0.0015665884129703045,-0.0335891917347908,1.0367900133132935,
304062,-0.025982467457652092,0.009713523089885712,1.0110124349594116,
304072,-0.011324217543005943,0.05628519877791405,0.9675473570823669,
304082,0.028661739081144333,0.061705294996500015,1.0186010599136353,
304092,-0.004737098701298237,0.013998476788401604,1.0284397602081299,
304102,-0.002753462875261903,0.018116502091288567,1.019818902015686,
304112,-0.00455169752240181,0.00690772570669651,1.006108283996582,
304122,-0.009931723587214947,0.03318038955330849,0.9765805602073669,
304132,-0.013678809627890587,0.03660186752676964,0.9963679313659668,
304142,0.0016151756281033158,0.014140846207737923,0.9911580085754395,
304152,-0.014441046863794327,0.005506689660251141,0.977094292640686,
304162,0.012750986032187939,-0.021336795762181282,1.0065264701843262,
304172,-0.0293393786996603,0.016988424584269524,1.0096380710601807,
304182,-0.0228197630494833,0.0620795339345932,0.9999279379844666,
304192,-0.010809425264596939,0.09631994366645813,0.9802747368812561,
304202,0.018159616738557816,0.010866859927773476,1.0302982330322266,
304212,-0.017163200303912163,-0.016229163855314255,1.0249919891357422,
304222,-0.004118817858397961,-0.012927555479109287,0.9958899617195129,
304232,-0.010473106056451797,0.05700698867440224,0.9858626127243042,
304242,-0.004382818005979061,0.006116137839853764,0.9748667478561401,
304252,-0.005684657022356987,0.002188175916671753,0.9801302552223206,
304262,-0.03492724522948265,0.0032520934473723173,1.0070688724517822,
304272,-0.01815977692604065,-0.00182337814476341,0.9809854030609131,
304282,-0.008259610272943974,0.030362511053681374,0.9891188740730286,
304292,-0.0060792709700763226,0.05400451272726059,1.0422337055206299,
304302,-0.020850572735071182,0.05480625107884407,1.0031254291534424,
304312,0.017272761091589928,-0.005566762760281563,1.0201386213302612,
304322,-0.03578325733542442,0.028184501454234123,1.001006007194519,
304332,-0.02623254619538784,-0.0004685225139837712,0.9984247088432312,
304342,-0.01904045231640339,0.04633330553770065,0.9788687229156494,
304352,0.004509358201175928,-0.005457267165184021,0.9967917203903198,
304362,-0.007974517531692982,-0.00953854713588953,1.0053693056106567,
304372,-0.007625783793628216,-0.005452391691505909,0.9976091980934143,
304382,-0.017652001231908798,0.0009671107982285321,0.985445499420166,
304392,-0.005143916234374046,0.024937424808740616,0.9916465282440186,
304402,-0.01224769651889801,0.02825721725821495,1.0525786876678467,
304412,-0.025067482143640518,0.029712045565247536,1.0080541372299194,
304422,0.008606542833149433,0.00911257416009903,0.9920540452003479,
304432,-0.0047750938683748245,0.022645698860287666,0.9982253909111023,
304442,-0.02219918742775917,-0.007950954139232635,1.018540620803833,
304452,-0.027322296053171158,0.032284244894981384,0.982301652431488,
304462,0.019626764580607414,0.011145377531647682,0.9711654186248779,
304472,-0.022601988166570663,-0.010226850397884846,1.0047024488449097,
304482,-0.02055964805185795,0.043433427810668945,1.0127511024475098,
304492,-0.021942561492323875,0.017187226563692093,1.0017222166061401,
304502,-0.0024153112899512053,0.02917017787694931,1.0004222393035889,
304512,-0.012284821830689907,0.006215482950210571,1.001273512840271,
304522,-0.02535844035446644,-0.015581425279378891,1.0072052478790283,
304532,0.005738928914070129,0.024939339607954025,0.9565578103065491,
304542,-0.002904027933254838,0.019002681598067284,0.966336190700531,
304552,-0.017745213583111763,0.04715326800942421,0.9942329525947571,
304562,-0.0037325946614146233,0.010820282623171806,1.009719729423523,
304572,-0.04062774404883385,0.014461219310760498,1.0296152830123901,
304582,0.0025210550520569086,-0.019651144742965698,1.0078120231628418,
304592,-0.016890347003936768,0.025468988344073296,0.977900505065918,
304602,-0.011677896603941917,0.005933975800871849,1.0230859518051147,
304612,-0.010404055938124657,0.016304003074765205,1.0051946640014648,
304622,-0.014649437740445137,-0.01808937080204487,0.9712214469909668,
304632,-0.02781667187809944,-0.03021583892405033,0.9982016682624817,
304642,-0.020598437637090683,0.022008461877703667,1.0449522733688354,
304652,-0.029575567692518234,-0.006640958599746227,1.0474252700805664,
304662,-0.028193973004817963,0.05160781741142273,0.9663326740264893,
304672,-0.008144100196659565,-0.0012995669385418296,1.0718908309936523,
304682,-0.013476260006427765,0.03523263707756996,1.0363271236419678,
304692,0.009066611528396606,0.04636659845709801,0.9812487959861755,
304702,0.006295521277934313,0.013241905719041824,1.0076720714569092,
304712,-0.015484795905649662,0.01869603991508484,0.9992721676826477,
304722,-0.002518056659027934,-0.014874047599732876,0.9594776630401611,
304732,-0.025845842435956,-0.006211445201188326,1.0029553174972534,
304742,-0.01838177628815174,0.024942217394709587,0.9989079236984253,
304752,0.0017186098266392946,0.013745813630521297,0.9709777235984802,
304762,-0.002234484301880002,0.017940331250429153,0.9818605184555054,
304772,0.011378781870007515,0.04460493102669716,1.006903886795044,
304782,-0.005573853384703398,0.014094256795942783,1.0271432399749756,
304792,0.0083231246098876,0.0033581708557903767,0.9747088551521301,
304802,-0.017798537388443947,0.010038147680461407,0.9958005547523499,
304812,-0.01247215922921896,0.002286308677867055,1.0121499300003052,
304822,-0.01648307964205742,0.0548165962100029,0.9586175680160522,
304832,0.0030445412266999483,0.027069775387644768,0.9966329336166382,
304842,-0.03260631486773491,0.03253411501646042,0.997898280620575,
304852,-0.00975024327635765,0.004253762774169445,1.0018532276153564,
304862,-0.012890840880572796,-0.006620899308472872,1.0070831775665283,
304872,-0.017750253900885582,-0.009966934099793434,1.0003801584243774,
304882,-0.01556838396936655,0.0024383082054555416,0.9899165630340576,
304892,-0.01608688198029995,0.02518532983958721,1.0127006769180298,
304902,-0.015509025193750858,0.01776239089667797,1.0218725204467773,
304912,-0.0019147996790707111,0.056066595017910004,0.9883235692977905,
304922,0.0005041518015787005,0.022895557805895805,1.0419931411743164,
304932,-0.003399873385205865,0.04525664821267128,1.0230143070220947,
304942,0.0024387214798480272,-0.00590074947103858,1.033738374710083,
304952,-0.03580640256404877,0.040830448269844055,1.0162500143051147,
304962,-0.008318562060594559,0.0038998275995254517,1.0045539140701294,
304972,0.004638980142772198,-0.005314660724252462,1.00767982006073,
304982,-0.01063847728073597,0.002899229759350419,1.0131139755249023,
304992,-0.009489201940596104,-0.0028926709201186895,1.01768159866333,
305002,-0.0018373786006122828,0.009675463661551476,1.0003061294555664,
305012,-0.004914173856377602,-0.016637537628412247,1.011138916015625,
305022,-0.04005088657140732,0.02206343039870262,1.046437382698059,
305032,-0.022204430773854256,0.017818216234445572,0.995983898639679,
305042,-0.004769994877278805,0.05077049508690834,0.9847754836082458,
305052,0.007439881097525358,0.0021772081963717937,1.05617094039917,
305062,-0.012306470423936844,0.03197973966598511,1.0369808673858643,
305072,0.019833538681268692,0.009585751220583916,0.9888970851898193,
305082,-0.011745083145797253,-0.007407436612993479,1.0128799676895142,
305092,-0.00032599165569990873,-0.015767617151141167,0.9941745400428772,
305102,-0.001182137755677104,-0.0026504662819206715,1.0133417844772339,
305112,-0.006499321199953556,-0.0034566300455480814,0.9994416236877441,
305122,-0.018518613651394844,-0.004642008803784847,1.025244116783142,
305132,-0.025395136326551437,0.013125274330377579,1.0108293294906616,
305142,-0.014564619399607182,0.03257054463028908,1.0123090744018555,
305152,0.010533014312386513,0.07005011290311813,1.012690782546997,
305162,0.003447748953476548,0.0018165864748880267,1.0609654188156128,
305172,-0.02223992347717285,0.015744168311357498,1.0280152559280396,
305182,0.00898002926260233,0.0018398782704025507,0.9951685667037964,
305192,-0.0026269725058227777,0.039745453745126724,1.005988597869873,
305202,-0.00936872698366642,-0.04622533172369003,1.0183310508728027,
305212,-0.020213473588228226,0.005801769904792309,0.9993875026702881,
305222,-0.0040036397986114025,-0.007331228349357843,0.9853017330169678,
305232,-0.0011451776372268796,-0.015253384597599506,1.0084540843963623,
305242,-0.007286746054887772,-0.005533013958483934,1.0216411352157593,
305252,-0.0036576450802385807,0.012335987761616707,0.9823116660118103,
305262,0.0007903447840362787,0.0733882486820221,0.9538760185241699,
305272,0.00020223927276674658,0.04746268689632416,1.041412115097046,
305282,-0.014346688985824585,0.020957576110959053,1.0403928756713867,
305292,0.015033163130283356,-0.013795359060168266,1.0377682447433472,
305302,-0.007904180325567722,0.0358116552233696,1.0032665729522705,
305312,-0.009526086039841175,-0.012869776226580143,1.002598762512207,
305322,-0.005370880477130413,0.02308591827750206,0.9929772615432739,
305332,0.0037818346172571182,-0.0031044872011989355,0.9754854440689087,
305342,-0.005475250072777271,-0.008357929065823555,1.005783200263977,
305352,-0.014774171635508537,-0.005831229500472546,0.9858561158180237,
305362,-0.01594613865017891,-0.0130518963560462,0.9946382641792297,
305372,-0.007757780607789755,0.07722126692533493,0.9969671368598938,
305382,-0.022097274661064148,0.002631958806887269,1.0385221242904663,
305392,0.005648332182317972,0.040608979761600494,0.9964672327041626,
305402,0.018061263486742973,0.006353278178721666,1.0268352031707764,
305412,-0.019473489373922348,0.05421343445777893,1.0136075019836426,
305422,-0.004214797634631395,0.05504521355032921,0.9910878539085388,
305432,-0.0030577091965824366,0.0398108996450901,0.9832174181938171,
305442,-0.003346758894622326,-0.005279199220240116,0.9988033771514893,
305452,-0.01778164878487587,-0.008466449566185474,0.9923635125160217,
305462,-0.008367318660020828,0.0049653369933366776,0.9693233966827393,
305472,0.0019585005939006805,-0.02649337239563465,1.031029224395752,
305482,-0.016083674505352974,0.016828151419758797,1.0171589851379395,
305492,0.006334340199828148,-0.02134554274380207,0.972771942615509,
305502,-0.009337687864899635,0.04822748899459839,0.9764352440834045,
305512,-0.017344482243061066,0.010793456807732582,1.0204914808273315,
305522,-0.009124458767473698,0.011663920246064663,1.0362341403961182,
305532,0.0032637545373290777,-0.003174546407535672,1.0239882469177246,
305542,-0.006400450598448515,0.016484366729855537,1.020369529724121,
305552,-0.011255619116127491,0.005461299791932106,1.0407098531723022,
305562,-0.010136875323951244,-0.012305795215070248,1.0424087047576904,
305572,-0.0015024623135104775,0.007645878940820694,1.0045791864395142,
305582,0.014980805106461048,0.029931096360087395,0.9945197105407715,
305592,0.007921065203845501,0.031176753342151642,1.0091533660888672,
305602,0.006034483201801777,0.0766277015209198,1.0465790033340454,
305612,-0.008192396722733974,-0.003789988812059164,1.0996127128601074,
305622,-0.013513145968317986,0.015400205738842487,1.0737658739089966,
305632,0.0034025469794869423,-0.015033326111733913,1.0908271074295044,
305642,-0.010547307319939137,0.004976699594408274,1.0701931715011597,
305652,0.0008930046460591257,-0.005044235847890377,1.0466129779815674,
305662,0.005425979848951101,0.02563922479748726,1.0277308225631714,
305672,0.004105191212147474,0.005894296336919069,1.023625135421753,
305682,-0.017336774617433548,0.00875099003314972,1.0707666873931885,
305692,-0.016142724081873894,0.015898406505584717,1.0797806978225708,
305702,-0.01349065825343132,-0.005608993582427502,1.0809481143951416,
305712,-0.012204538099467754,0.013459406793117523,1.1385509967803955,
305722,-0.003333556931465864,0.033117737621068954,1.1465789079666138,
305732,-0.006706705782562494,0.01882907934486866,1.1196165084838867,
305742,-0.03794679418206215,-0.013623934239149094,1.1182247400283813,
305752,-0.0021151837427169085,-0.015293077565729618,1.1269292831420898,
305762,0.018551459535956383,0.012226719409227371,1.0882259607315063,
305772,-0.030503474175930023,0.06064257770776749,1.0651941299438477,
305782,-0.03371155261993408,0.02466345578432083,1.1418054103851318,
305792,0.005729814525693655,0.06579466164112091,1.1235657930374146,
305802,0.020707791671156883,0.030197804793715477,1.140581488609314,
305812,-0.007515836972743273,-0.015596258454024792,1.0902938842773438,
305822,-0.03633458912372589,0.020467359572649002,1.1211731433868408,
305832,-0.012369846925139427,0.045003410428762436,1.1395530700683594,
305842,0.01807411015033722,0.0024116504937410355,1.1006520986557007,
305852,0.0021387541200965643,0.03375811502337456,1.0905327796936035,
305862,0.0008874112972989678,0.005822864826768637,1.134108304977417,
305872,-0.011323798447847366,0.012139303609728813,1.105699896812439,
305882,-0.023128237575292587,0.003506285836920142,1.1152805089950562,
305892,0.011059504933655262,0.002442152239382267,1.0972622632980347,
305902,-0.0003479106235317886,0.02020452171564102,1.0948396921157837,
305912,-0.024466952309012413,0.05949617922306061,1.1128391027450562,
305922,0.01219535619020462,0.03718668222427368,1.1253539323806763,
305932,-0.00894988514482975,-0.0007527688285335898,1.0934088230133057,
305942,-0.037108153104782104,0.016932720318436623,1.0829355716705322,
305952,-0.004873329773545265,0.008399665355682373,1.1259273290634155,
305962,-0.0007543651736341417,-0.01065678708255291,1.1485201120376587,
305972,-0.028917405754327774,0.0014221415622159839,1.139907956123352,
305982,0.014025939628481865,-0.018392357975244522,1.126715898513794,
305992,0.01665215753018856,0.009908881038427353,1.069120168685913,
306002,-0.012083415873348713,-0.0005524652078747749,1.0774987936019897,
306012,-0.020616255700588226,-0.004804353229701519,1.1234971284866333,
306022,-0.007821070961654186,0.07522085309028625,1.0701197385787964,
306032,-0.008676399476826191,0.05906122550368309,1.0736829042434692,
306042,-0.010034498758614063,-0.010762205347418785,1.04971444606781,
306052,-0.034021783620119095,0.004401032812893391,1.0796188116073608,
306062,-0.013598280027508736,0.007140188477933407,1.0883017778396606,
306072,-0.0009802269050851464,-0.018188275396823883,1.1008824110031128,
306082,-0.023593440651893616,-0.004666229709982872,1.0836710929870605,
306092,-0.023081421852111816,-0.020360348746180534,1.0788933038711548,
306102,-0.019186392426490784,0.009051411412656307,1.094079613685608,
306112,0.009726841934025288,-0.020724596455693245,1.0887641906738281,
306122,-0.0019375489791855216,0.008123068138957024,1.050593614578247,
306132,0.0032201807480305433,0.06443830579519272,1.040194034576416,
306142,-0.01004174817353487,0.021592071279883385,1.039515495300293,
306152,-0.023395106196403503,0.024069197475910187,1.0313124656677246,
306162,-0.014256331138312817,0.05628640204668045,1.0700830221176147,
306172,-0.0024775860365480185,-0.00405749399214983,1.057079792022705,
306182,-0.017180994153022766,0.014218361116945744,1.0423531532287598,
306192,-0.0008146996842697263,-0.002644215477630496,1.0462825298309326,
306202,-0.0017929779132828116,0.003261204808950424,1.0220210552215576,
306212,-0.006022224202752113,0.0063270870596170425,1.004838228225708,
306222,-0.013248630799353123,0.008213091641664505,1.0060499906539917,
306232,0.002410539425909519,0.04061287268996239,0.9831244945526123,
306242,-0.0056496900506317616,0.04393849894404411,0.9816287755966187,
306252,-0.008228844031691551,0.062119971960783005,1.0094969272613525,
306262,-0.0015681819058954716,0.00109869462903589,1.0077238082885742,
306272,0.0023203385062515736,0.024633407592773438,1.0101336240768433,
306282,-0.022749776020646095,0.06303132325410843,1.0187666416168213,
306292,0.0030557531863451004,0.0020279528107494116,0.9966678619384766,
306302,-0.014919063076376915,0.01398534793406725,0.9982224106788635,
306312,0.004968623630702496,-0.012708337977528572,1.0119386911392212,
306322,-0.029502203688025475,0.01390689518302679,1.0266598463058472,
306332,-0.0006140038021840155,0.0037672631442546844,1.011388897895813,
306342,-0.0035290515515953302,0.03935258463025093,0.979127824306488,
306352,9.358108218293637e-05,0.011207249015569687,0.9810551404953003,
306362,-0.0087839150801301,0.02494259551167488,0.9996091723442078,
306372,-0.013763710856437683,0.014853131957352161,0.9924315214157104,
306382,-0.01933874748647213,0.03374201059341431,0.9852316975593567,
306392,-0.01683337427675724,0.04801813140511513,1.0059324502944946,
306402,0.008069843053817749,-0.004760073963552713,0.9745885729789734,
306412,-0.01266542635858059,0.007262644357979298,1.0009994506835938,
306422,-0.00848750863224268,0.038418762385845184,1.0098119974136353,
306432,-0.023543706163764,0.010052202269434929,1.033865213394165,
306442,-0.026466067880392075,-0.01480407640337944,1.0547791719436646,
306452,-0.016472840681672096,-0.003991424571722746,1.0388178825378418,
306462,0.011457846499979496,0.020454060286283493,0.9846060872077942,
306472,-0.01743142120540142,-0.013511176221072674,1.0482650995254517,
306482,-0.024997198954224586,0.013274119235575199,1.0373990535736084,
306492,-0.016428187489509583,0.006949304137378931,1.078847885131836,
306502,-0.007036042399704456,-0.007050085347145796,1.0580711364746094,
306512,-0.01014380156993866,0.02284752018749714,1.0137981176376343,
306522,-0.008417508564889431,-0.005045422352850437,1.0594626665115356,
306532,-0.043243397027254105,0.01589900068938732,1.0506035089492798,
306542,-0.02864046022295952,-0.015597844496369362,0.9917763471603394,
306552,-0.014177752658724785,0.008417956531047821,1.0039364099502563,
306562,-0.020976869389414787,0.008109656162559986,0.9839650392532349,
306572,-0.02617758698761463,0.01187729462981224,1.0197556018829346,
306582,-0.013946758583188057,0.008191990666091442,0.9860190749168396,
306592,0.0066596828401088715,0.012743677012622356,0.9420932531356812,
306602,0.00013089085405226797,-0.007888466119766235,0.9625899195671082,
306612,-0.008338243700563908,0.059631574898958206,0.9551681280136108,
306622,0.01824508048593998,0.02462715096771717,1.0035400390625,
306632,-0.029160117730498314,0.031214017421007156,1.0304539203643799,
306642,0.0010245683370158076,0.0182125773280859,0.9716023206710815,
306652,-0.008459474891424179,0.04689992964267731,0.9702742099761963,
306662,0.0009039468714036047,0.1038246750831604,0.9715177416801453,
306672,-0.003965187817811966,0.0335569866001606,0.9453607797622681,
306682,-0.0034823338501155376,0.02083882875740528,0.9622800350189209,
306692,-0.018718479201197624,-0.012355579063296318,1.0045827627182007,
306702,0.007270525209605694,0.02831084281206131,1.0098414421081543,
306712,-0.008462180383503437,0.0175557192414999,0.964150607585907,
306722,-0.01224477868527174,0.030206874012947083,1.0208390951156616,
306732,-0.029987528920173645,0.005686237011104822,1.0317827463150024,
306742,-0.008272403851151466,-0.0069596897810697556,0.9366435408592224,
306752,-0.0401623398065567,0.013459892943501472,0.9538457989692688,
306762,0.0020363612566143274,0.10739237070083618,0.9634247422218323,
306772,0.013526939786970615,0.03099159523844719,0.9587119817733765,
306782,0.004961596801877022,0.02356436476111412,0.990933358669281,
306792,0.003406856209039688,-0.013224968686699867,1.0149896144866943,
306802,-0.021273337304592133,0.03272274136543274,1.0101512670516968,
306812,-0.020081093534827232,0.010080704465508461,0.9845588803291321,
306822,-0.026665814220905304,0.04002735763788223,1.0102980136871338,
306832,-0.0028608229476958513,0.017692675814032555,0.9944348335266113,
306842,0.0007469366537407041,0.016325801610946655,0.9842643737792969,
306852,0.0016111097065731883,-0.0017107542371377349,0.97576504945755,
306862,-0.007075479719787836,0.02313302643597126,0.9643838405609131,
306872,0.003918105736374855,0.016961945220828056,0.9769042134284973,
306882,0.0008899557287804782,0.054575365036726,0.9893965125083923,
306892,-0.00010450974514242262,0.02655254304409027,1.01731538772583,
306902,-0.015219513326883316,0.015246637165546417,1.0561271905899048,
306912,-0.01767847314476967,0.037718985229730606,1.0262328386306763,
306922,-0.026749908924102783,0.06518068164587021,0.9781514406204224,
306932,-0.010303756222128868,0.03651001676917076,1.0028704404830933,
306942,0.008972425013780594,-0.003103119321167469,1.0047818422317505,
306952,-0.0022554073948413134,0.009721930138766766,0.9760324954986572,
306962,0.0016194091876968741,0.009823791682720184,0.9829005599021912,
306972,-0.00963460374623537,0.004285097122192383,0.9766824245452881,
306982,-0.019013376906514168,0.030446499586105347,0.9864822030067444,
306992,-0.00467747962102294,0.024761319160461426,0.927392303943634,
307002,-0.016827808693051338,0.009583310224115849,0.930077314376831,
307012,-0.0008912866469472647,0.02571072056889534,0.9546610713005066,
307022,-0.015942633152008057,0.031595878303050995,0.9814062118530273,
307032,-0.006959336809813976,0.04773573949933052,0.9373651146888733,
307042,0.02693367935717106,-0.019818086177110672,0.935958206653595,
307052,0.0013274721568450332,0.007658335380256176,0.9349629282951355,
307062,-0.013148876838386059,0.0845453143119812,0.901951014995575,
307072,0.014598596841096878,0.026738211512565613,0.9607939720153809,
307082,-0.018144994974136353,0.03990275040268898,0.9422309994697571,
307092,-0.0037518637254834175,-0.02138795517385006,0.927872359752655,
307102,-0.015941312536597252,0.017262117937207222,0.9385203123092651,
307112,-0.016926592215895653,0.03694673627614975,0.8808704614639282,
307122,-0.026612814515829086,-0.019202014431357384,0.9179788827896118,
307132,0.013922539539635181,0.057684868574142456,0.8991594910621643,
307142,-0.002230501500889659,-0.010147439315915108,0.9106795787811279,
307152,-0.018317021429538727,-0.02055753767490387,0.9094372987747192,
307162,-0.011657843366265297,0.057356901466846466,0.8941875100135803,
307172,0.009667512029409409,0.02653343603014946,0.8605521321296692,
307182,-0.03137783706188202,0.04562279209494591,0.9052608013153076,
307192,-0.008734522387385368,0.0148471063002944,0.9285559058189392,
307202,0.004563798662275076,-0.010187380947172642,0.9005853533744812,
307212,-0.00533533887937665,0.03564124181866646,0.9199997782707214,
307222,0.008288122713565826,0.10184764117002487,0.899545431137085,
307232,0.019179994240403175,0.004505541641265154,0.8735418915748596,
307242,-0.031197043135762215,-0.016718195751309395,0.904364287853241,
307252,0.0182702224701643,-0.012207691557705402,0.9082996249198914,
307262,-0.0004251096397638321,0.02379450760781765,0.8794862031936646,
307272,-0.023503616452217102,-0.001488483278080821,0.8976476788520813,
307282,-0.011198675259947777,0.07172534614801407,0.9123304486274719,
307292,0.027839073911309242,0.003525869455188513,0.8727304339408875,
307302,0.0005687083466909826,0.005674590822309256,0.8562871217727661,
307312,-0.008176601491868496,0.0009363028220832348,0.8856214880943298,
307322,0.007366045843809843,0.07186194509267807,0.8858585357666016,
307332,-0.008593732491135597,0.10744147002696991,0.8541646599769592,
307342,-0.038580626249313354,0.06353932619094849,0.8844774961471558,
307352,0.0031411724630743265,-0.005866024177521467,0.8940930962562561,
307362,-0.020697588101029396,0.09475291520357132,0.8664438128471375,
307372,-0.019643573090434074,0.0844934806227684,0.8760621547698975,
307382,-0.01123412698507309,0.052685219794511795,0.9127219319343567,
307392,-0.019651230424642563,0.024737779051065445,0.897793710231781,
307402,-0.018564635887742043,-0.004697885829955339,0.8646788597106934,
307412,-0.008562572300434113,-0.01229020580649376,0.8972631096839905,
307422,0.0037608840502798557,0.004349740222096443,0.9005128741264343,
307432,0.0023299928288906813,0.026280758902430534,0.8687317967414856,
307442,0.016115814447402954,-0.036009132862091064,0.8927187919616699,
307452,-0.005608540028333664,-0.002943446161225438,0.9248034358024597,
307462,0.007942866533994675,0.053774394094944,0.8866417407989502,
307472,-0.014896652661263943,0.04192511737346649,0.8782209753990173,
307482,0.00024550524540245533,0.041253793984651566,0.9241074323654175,
307492,-0.017214788123965263,0.06909413635730743,0.9078191518783569,
307502,-0.0023751487024128437,0.006281599402427673,0.8902412056922913,
307512,-0.03492342308163643,0.050856590270996094,0.8946924209594727,
307522,-0.03732914850115776,0.06552378833293915,0.8912615776062012,
307532,-0.016767291352152824,0.033063024282455444,0.8838766813278198,
307542,-0.008165344595909119,0.0017815082101151347,0.9395868182182312,
307552,-0.007227931171655655,0.009533822536468506,0.9489079713821411,
307562,-7.761970482533798e-05,0.0008161402656696737,0.9281405210494995,
307572,0.007619681302458048,-0.013260465115308762,0.9400764107704163,
307582,-0.007179343141615391,0.01042654924094677,0.9393550157546997,
307592,0.026428882032632828,-0.018501363694667816,0.9353487491607666,
307602,-0.013975324109196663,0.0076876129023730755,0.9452608227729797,
307612,-0.019382784143090248,0.013574729673564434,0.958480179309845,
307622,0.004873623605817556,0.07483916729688644,0.9320504665374756,
307632,-0.008192578330636024,0.027547618374228477,0.9612371921539307,
307642,0.009971819818019867,0.008511893451213837,0.9497178196907043,
307652,-0.0026129584293812513,0.04141818732023239,0.9677661061286926,
307662,-0.01162194274365902,0.03148805722594261,0.9627509713172913,
307672,-0.00141204334795475,0.03963158652186394,0.9595547318458557,
307682,-0.0023647279012948275,0.004585686139762402,0.9604821801185608,
307692,-0.009169437922537327,-0.006126590073108673,0.9955502152442932,
307702,0.0088430717587471,0.005073049571365118,0.9583009481430054,
307712,-0.013768136501312256,0.02162768691778183,0.9797256588935852,
307722,0.0033306600525975227,0.0008377477643080056,0.9615581035614014,
307732,0.008363823406398296,0.05207497254014015,0.9500859975814819,
307742,-0.009375247173011303,0.03953789547085762,0.9842128753662109,
307752,0.008993744850158691,0.06547573953866959,0.9709245562553406,
307762,-0.010828333906829357,0.005918207578361034,0.9922682046890259,
307772,0.0005616958369500935,0.057966578751802444,0.9719166159629822,
307782,0.002791206119582057,0.011114664375782013,0.9768436551094055,
307792,-0.017998067662119865,0.022876841947436333,0.9770832657814026,
307802,-0.01088783610612154,0.012637712061405182,0.9496292471885681,
307812,-0.010373328812420368,0.01352319773286581,0.9676576852798462,
307822,-0.011027727276086807,0.013427847996354103,0.9636155366897583,
307832,-0.009960247203707695,-0.003768113674595952,0.9846200942993164,
307842,-0.013599419966340065,0.003390425117686391,0.9976805448532104,
307852,-0.005601414479315281,0.03253414109349251,0.98090660572052,
307862,0.002797601046040654,0.03729185461997986,0.9894312024116516,
307872,-0.015111776068806648,-0.004752952605485916,1.0044952630996704,
307882,-0.0004830998950637877,-0.011427936144173145,0.9664961695671082,
307892,-0.004829867742955685,0.049154531210660934,0.9546492695808411,
307902,-0.013778455555438995,0.032734211534261703,1.002297043800354,
307912,-0.018439793959259987,0.07335461676120758,0.9636654257774353,
307922,0.006459399126470089,0.007182468194514513,0.9798741936683655,
307932,-0.011006224900484085,0.016469132155179977,0.9878880977630615,
307942,-0.015601196326315403,0.017240168526768684,0.9683575630187988,
307952,-0.016073210164904594,0.0011937357485294342,1.0086734294891357,
307962,-0.011797989718616009,0.029271846637129784,0.9842444658279419,
307972,0.011864369735121727,0.010057153180241585,0.978789210319519,
307982,-0.009590034373104572,0.028581833466887474,1.0187419652938843,
307992,-0.024817246943712234,-0.0005922165000811219,0.9892634153366089,
308002,-0.00017978328105527908,0.05855651944875717,0.97162926197052,
308012,0.016881069168448448,0.047855060547590256,0.9976767897605896,
308022,-0.006655941717326641,0.004647223278880119,1.0106977224349976,
308032,0.006595615763217211,-0.010286606848239899,0.9822337627410889,
308042,0.007515693549066782,-0.005629013758152723,1.010994791984558,
308052,-0.003258681856095791,0.021744605153799057,1.0016443729400635,
308062,0.008927841670811176,0.0006768692401237786,0.9741950631141663,
308072,-0.006751642096787691,-0.009626154787838459,1.0240498781204224,
308082,0.009604189544916153,0.009449088014662266,1.0006930828094482,
308092,-0.011273631826043129,-0.006912048906087875,0.9618141055107117,
308102,-0.0006662274827249348,0.022657347843050957,0.9915465116500854,
308112,-0.008525930345058441,0.04797158017754555,1.025081753730774,
308122,-0.019275130704045296,0.012669912539422512,0.9897928237915039,
308132,0.018655912950634956,0.020266924053430557,0.9794681668281555,
308142,0.004814133048057556,0.03394448012113571,0.9978881478309631,
308152,-0.021861618384718895,0.0685182586312294,0.9973093867301941,
308162,0.026189908385276794,-0.0075720008462667465,0.942965030670166,
308172,0.019082166254520416,0.002452230080962181,0.9801614880561829,
308182,-0.021428251639008522,0.010835477150976658,1.0022207498550415,
308192,-0.0009586579981260002,0.06690114736557007,0.984466016292572,
308202,0.006639023311436176,0.014523578807711601,0.9898322224617004,
308212,-0.0007187300943769515,0.010531906969845295,0.9925071001052856,
308222,-0.0012109805829823017,-0.0026709383819252253,1.004343867301941,
308232,-0.0007469731499440968,-0.0015062332386150956,1.0159897804260254,
308242,0.011426834389567375,0.00816755648702383,0.966890275478363,
308252,0.01799393817782402,0.008919104002416134,1.0229429006576538,
308262,0.007815656252205372,0.049866221845149994,1.047636866569519,
308272,-0.0037822832819074392,-0.007242289837449789,1.030329704284668,
308282,0.00012077442806912586,0.021779324859380722,1.003550410270691,
308292,0.009236390702426434,0.024407755583524704,1.00019371509552,
308302,0.015870651230216026,0.050298139452934265,0.9980009198188782,
308312,0.025030216202139854,0.021347660571336746,1.00543212890625,
308322,0.014692394062876701,0.011748318560421467,1.0345367193222046,
308332,-0.010298390872776508,0.022335801273584366,1.027477741241455,
308342,-0.02734883688390255,0.015493305400013924,1.0081195831298828,
308352,0.009254375472664833,0.05554696545004845,0.9949596524238586,
308362,0.0325433611869812,-0.00013238297833595425,1.0118422508239746,
308372,0.005017668008804321,0.029454834759235382,1.0031235218048096,
308382,0.01737171970307827,-0.015350980684161186,1.037854552268982,
308392,-0.0035064665134996176,0.010216662660241127,1.0321121215820312,
308402,0.002862668829038739,0.0007379095768555999,1.0491366386413574,
308412,0.004317195154726505,0.011020967736840248,1.0242466926574707,
308422,0.006934388540685177,0.002793571213260293,1.0096948146820068,
308432,0.035295259207487106,0.05807182565331459,0.9680737853050232,
308442,0.025771964341402054,0.008764323778450489,0.9720556139945984,
308452,-0.014362489804625511,-0.008820240385830402,1.0149874687194824,
308462,-0.003932892810553312,-0.015431289561092854,1.0091949701309204,
308472,-0.002417807700112462,0.004251082427799702,0.9984516501426697,
308482,0.010409926995635033,0.01249427255243063,0.981224000453949,
308492,0.008050637319684029,0.03502709046006203,0.963098406791687,
308502,0.0005804943502880633,0.003430184442549944,1.0089665651321411,
308512,-0.00037291605258360505,-0.009647388942539692,0.9976948499679565,
308522,0.008992042392492294,-0.006950624752789736,0.9732247591018677,
308532,0.01669531874358654,0.006381348241120577,0.9654325842857361,
308542,0.014663048088550568,0.0335301049053669,1.0160287618637085,
308552,-0.0002584864851087332,0.010719329118728638,0.9969987273216248,
308562,-0.007701175287365913,0.03066248632967472,0.9935538172721863,
308572,0.021775484085083008,0.007905904203653336,0.9737171530723572,
308582,0.01839308999478817,0.06319314241409302,0.9945343136787415,
308592,0.014838088303804398,0.03983454406261444,1.0314881801605225,
308602,-0.000554194615688175,0.004351546987891197,1.0236543416976929,
308612,0.016171513125300407,-0.035795193165540695,1.0211584568023682,
308622,0.00659057917073369,0.055487312376499176,0.9986048340797424,
308632,0.034730393439531326,0.019077898934483528,1.0140870809555054,
308642,0.008664581924676895,0.021467583253979683,1.0198254585266113,
308652,0.02245986834168434,-0.012352806515991688,1.0269008874893188,
308662,-0.011344371363520622,-0.016256216913461685,1.009405255317688,
308672,-0.009967298246920109,0.012016061693429947,1.041906714439392,
308682,0.0019383819308131933,-0.012143523432314396,1.016524076461792,
308692,0.007760719396173954,0.038407184183597565,1.01273512840271,
308702,0.025216545909643173,0.030566776171326637,1.0103816986083984,
308712,0.006864890456199646,-0.008091052994132042,1.009796380996704,
308722,0.012678968720138073,0.006123255006968975,1.0429474115371704,
308732,0.013735359534621239,0.03488687425851822,1.0214766263961792,
308742,-0.009141908027231693,-0.004431298468261957,1.0591543912887573,
308752,-0.013663765974342823,-0.024821197614073753,1.0160735845565796,
308762,-0.0025514131411910057,0.027323124930262566,1.0098398923873901,
308772,0.016945162788033485,0.008597681298851967,1.0141760110855103,
308782,0.012866317294538021,-9.599509940017015e-05,0.996937096118927,
308792,0.025179721415042877,-0.006116421427577734,1.0080599784851074,
308802,0.012716750614345074,-0.00862161349505186,1.0084539651870728,
308812,0.006948878522962332,0.0009258778882212937,1.0051742792129517,
308822,-0.0027333847247064114,-0.01339188776910305,1.0076606273651123,
308832,0.009256384335458279,0.0015205643139779568,1.0236976146697998,
308842,-0.002207878977060318,-0.0063990443013608456,1.0142426490783691,
308852,-0.006638555787503719,0.03047366812825203,1.0367941856384277,
308862,0.020203663036227226,0.00848342664539814,1.0014299154281616,
308872,-0.01125476136803627,0.00793939083814621,1.0086958408355713,
308882,0.0170106403529644,0.005401333793997765,0.95582115650177,
308892,0.0023768770042806864,-0.015253126621246338,0.9865953326225281,
308902,-0.015611672773957253,0.02000248245894909,1.0257405042648315,
308912,0.009256272576749325,0.02807869389653206,1.024425745010376,
308922,-0.026691429316997528,-0.013899894431233406,1.0424636602401733,
308932,-0.016091616824269295,-0.007909041829407215,0.9997919797897339,
308942,-0.00899993535131216,-0.007098764181137085,0.9850600361824036,
308952,0.015650535002350807,-0.006886372342705727,0.9851768612861633,
308962,-0.01073127705603838,-0.009664449840784073,1.0233243703842163,
308972,-0.003446205286309123,-0.015765847638249397,0.9975629448890686,
308982,0.005158986896276474,-0.0003379681729711592,0.97312331199646,
308992,0.025445228442549706,0.01742376945912838,0.9876232743263245,
309002,0.016024213284254074,0.023192543536424637,1.0262713432312012,
309012,-0.0051720659248530865,-0.028399156406521797,1.0498088598251343,
309022,0.006464166101068258,0.035265784710645676,0.9719594120979309,
309032,0.01631222665309906,-0.020128097385168076,0.9492058753967285,
309042,0.006048332434147596,0.01165560632944107,1.0169345140457153,
309052,0.010990462265908718,0.0025947235990315676,1.0041499137878418,
309062,-0.010883239097893238,0.059710972011089325,0.9973968863487244,
309072,0.01641983911395073,0.00434392923489213,0.9780359864234924,
309082,-0.014721556566655636,0.004216166213154793,0.9862902164459229,
309092,0.023279186338186264,-0.006132894661277533,1.0068039894104004,
309102,0.0027093198150396347,0.03715706616640091,0.9855921864509583,
309112,0.014023974537849426,0.021704280748963356,1.0002321004867554,
309122,-0.004278453998267651,0.03415936604142189,0.9841928482055664,
309132,0.0033681110944598913,-0.02325284481048584,1.0031907558441162,
309142,-0.013204756192862988,0.011621730402112007,0.9890456795692444,
309152,0.023274507373571396,-0.0030729493591934443,0.9687638282775879,
309162,0.0019726725295186043,-0.004072649870067835,0.9934595823287964,
309172,0.0019028236856684089,0.0022762096486985683,1.0018566846847534,
309182,-0.008593473583459854,-0.004858010448515415,1.0040327310562134,
309192,0.006302921567112207,0.0037666973657906055,0.9765769839286804,
309202,0.0023190241772681475,0.00829489715397358,0.9520536065101624,
309212,-0.0026905215345323086,-0.023584555834531784,1.0287022590637207,
309222,0.0090413149446249,0.004189268685877323,0.9870884418487549,
309232,0.0038966459687799215,0.0021473378874361515,0.9738181233406067,
309242,-0.0038222919683903456,0.02129529044032097,0.9913843870162964,
309252,0.005455253645777702,0.04191839322447777,0.9950591921806335,
309262,-0.01067363005131483,-0.0009546147775836289,0.9825566411018372,
309272,0.003989917226135731,-0.02052980102598667,1.0010762214660645,
309282,-0.005114401690661907,0.036163080483675,0.9945367574691772,
309292,0.014136983081698418,0.033542074263095856,0.9599624872207642,
309302,0.02619973197579384,0.032473452389240265,0.9933862686157227,
309312,-0.001025355071760714,-0.01042872853577137,1.0315676927566528,
309322,0.006247198209166527,0.04461141675710678,0.979744017124176,
309332,0.027906883507966995,0.000316047080559656,0.9476240873336792,
309342,-0.002688816748559475,0.027669133618474007,1.00124192237854,
309352,-0.002409982495009899,-0.011898971162736416,0.9973450899124146,
309362,0.0042330427095294,0.03661377727985382,0.9960119724273682,
309372,0.012209665961563587,0.009236976504325867,0.9805841445922852,
309382,0.0016118871280923486,0.009140634909272194,1.0052140951156616,
309392,0.023035431280732155,-0.016052834689617157,1.0281121730804443,
309402,0.011453578248620033,-0.011295340955257416,0.9965971112251282,
309412,0.01760077476501465,0.015403819270431995,0.971957802772522,
309422,0.01634032279253006,0.020314952358603477,0.9735764861106873,
309432,-0.039373382925987244,-0.022231021896004677,1.0066461563110352,
309442,-0.019138049334287643,0.021498756483197212,0.9911772012710571,
309452,0.0014173605013638735,0.042666565626859665,0.956941545009613,
309462,-0.012671989388763905,-0.008035971783101559,1.031768560409546,
309472,0.001257693162187934,-0.0024549984373152256,1.0181854963302612,
309482,-0.002594031160697341,0.009106419049203396,1.0022281408309937,
309492,0.02016390673816204,0.030664602294564247,0.9730282425880432,
309502,0.015264613553881645,0.0103775504976511,0.9990203380584717,
309512,-0.008323104120790958,0.02074255980551243,0.9926024079322815,
309522,0.020785009488463402,0.020136317238211632,0.9551927447319031,
309532,0.01102458219975233,0.012846332974731922,0.9793156385421753,
309542,-0.018538381904363632,0.03149004280567169,1.0171998739242554,
309552,-0.011848957277834415,0.02919103391468525,0.9935100078582764,
309562,0.02680104225873947,0.06381181627511978,1.0036935806274414,
309572,0.004096839111298323,0.01200705487281084,0.9983874559402466,
309582,-0.003827369073405862,0.0005374012980610132,1.0040894746780396,
309592,-0.01115754246711731,0.005794850643724203,0.9814062118530273,
309602,-0.0005526265595108271,-0.018507175147533417,0.9817614555358887,
309612,0.0005021807737648487,0.02782457508146763,0.9722180962562561,
309622,0.000537221843842417,-0.01713453233242035,0.9881224036216736,
309632,-0.009729579091072083,-0.00603703735396266,1.000388741493225,
309642,0.010794548317790031,-0.00016644397692289203,0.9746686816215515,
309652,0.00034953601425513625,0.02896861732006073,0.9975942969322205,
309662,-0.01911836303770542,-0.0027099065482616425,1.038201928138733,
309672,0.004685492254793644,0.017677664756774902,0.9847023487091064,
309682,0.0005043499986641109,-0.002976869000121951,0.9862699508666992,
309692,0.011928430758416653,0.013135037384927273,1.0076234340667725,
309702,-0.008765374310314655,-0.02722170390188694,1.0282049179077148,
309712,-0.00948510691523552,0.05142733082175255,1.0023545026779175,
309722,0.027073143050074577,0.018087103962898254,0.9633732438087463,
309732,-0.004133383743464947,0.03831671178340912,0.9767950177192688,
309742,-0.001128344563767314,0.015636390075087547,0.9994379281997681,
309752,-0.012375270016491413,0.046132102608680725,1.011927604675293,
309762,-0.00536012789234519,0.02971913479268551,1.000471591949463,
309772,-0.010757917538285255,-0.0001595361827639863,1.0045379400253296,
309782,0.006570321973413229,0.00018787337467074394,0.981041431427002,
309792,0.009441165253520012,0.022247130051255226,0.9762188196182251,
309802,-0.011204306036233902,0.01266502682119608,1.02350914478302,
309812,-0.002886405447497964,0.030165093019604683,1.0226149559020996,
309822,-0.0031912848353385925,-0.000694901158567518,1.01594877243042,
309832,-0.003067753277719021,-0.004329215735197067,1.0134581327438354,
309842,0.014877657406032085,0.006439610384404659,1.0279356241226196,
309852,0.017969951033592224,0.04288739711046219,1.0318152904510498,
309862,0.016659054905176163,-0.00010135696356883273,1.0489816665649414,
309872,-0.006023402325809002,-0.016244621947407722,1.055698275566101,
309882,-0.01749640516936779,0.024378474801778793,1.03643000125885,
309892,-0.02597128599882126,0.03156634047627449,1.0287374258041382,
309902,0.0113288052380085,0.06283143162727356,0.9788528084754944,
309912,0.007458113599568605,0.021475529298186302,1.0010124444961548,
309922,0.011644339188933372,0.08765929937362671,1.0033823251724243,
309932,0.020932773128151894,-0.01538796629756689,1.0206234455108643,
309942,-0.027822250500321388,-0.0076059624552726746,1.038058876991272,
309952,-0.01714281737804413,-0.004402916878461838,0.9993742108345032,
309962,-0.01592392846941948,0.0041276016272604465,1.0263789892196655,
309972,0.019261391833424568,0.004667114932090044,0.9931594729423523,
309982,0.007481641136109829,-0.0025587654672563076,1.0092116594314575,
309992,0.00742944423109293,0.04086245596408844,1.015657901763916,
310002,0.006548224948346615,0.04072395712137222,1.034961462020874,
310012,0.006530276965349913,-0.030244454741477966,1.0626949071884155,
310022,-0.004945556167513132,0.005505041219294071,1.0281898975372314,
310032,-0.007314892020076513,0.006207944359630346,0.9828069806098938,
310042,0.013100468553602695,0.046946730464696884,0.9928343296051025,
310052,0.013726669363677502,0.00393996387720108,1.047116994857788,
310062,-0.025128277018666267,-0.004347332753241062,1.040087103843689,
310072,-0.0004171299224253744,-0.005426466464996338,0.992470383644104,
310082,-0.006196308881044388,0.07998763769865036,0.9429929852485657,
310092,0.00877321045845747,0.022475916892290115,0.9846495389938354,
310102,-0.0022387916687875986,-0.0017239699373021722,1.0033928155899048,
310112,7.97157463239273e-06,-0.006621554493904114,0.9931192398071289,
310122,-0.004097033757716417,0.0036853239871561527,0.9938206672668457,
310132,0.011559102684259415,0.03377974405884743,0.9776060581207275,
310142,-0.01071422640234232,-0.003171900985762477,1.0246928930282593,
310152,-0.0039009477477520704,0.0008751808782108128,0.9866561889648438,
310162,0.017842981964349747,0.03648195043206215,0.9570173025131226,
310172,0.005834798328578472,0.013810540549457073,1.002832055091858,
310182,0.0042521595023572445,0.005470817442983389,0.9865806102752686,
310192,-0.005549462046474218,0.010210130363702774,0.938411295413971,
310202,0.01711808331310749,0.06944374740123749,0.9875283241271973,
310212,0.009798760525882244,0.0038453293964266777,1.0411032438278198,
310222,0.004426075145602226,-0.010843564756214619,0.9794660806655884,
310232,0.012547584250569344,0.013370041735470295,0.978084146976471,
310242,0.004839633591473103,-0.008800718933343887,0.9992390275001526,
310252,-0.039164308458566666,0.018417758867144585,0.9936149716377258,
310262,0.019054844975471497,-0.004583707544952631,0.9732628464698792,
310272,-0.004999461118131876,-0.010473466478288174,0.9935985803604126,
310282,-0.0026043427642434835,0.0009051391971297562,1.000044822692871,
310292,-0.007949814200401306,0.008293898776173592,1.0184779167175293,
310302,-0.005308793392032385,0.03557126969099045,0.9566541910171509,
310312,0.013358098454773426,0.04404515027999878,0.9826635122299194,
310322,0.000987686333246529,-0.010595600120723248,1.0401630401611328,
310332,-0.010360936634242535,0.02289663255214691,1.0038844347000122,
310342,0.006303606554865837,0.014357450418174267,0.9711429476737976,
310352,0.02247876673936844,0.047024890780448914,0.9990578293800354,
310362,0.010303555056452751,-0.023855911567807198,1.0498223304748535,
310372,-0.03312860429286957,0.07298014312982559,1.0474538803100586,
310382,-0.012609903700649738,0.042210936546325684,0.9835571050643921,
310392,0.030899301171302795,0.010663549415767193,0.9862505197525024,
310402,0.027738600969314575,0.004938528873026371,0.9788306951522827,
310412,0.003087416058406234,0.01929709129035473,1.0025864839553833,
310422,0.01681053265929222,0.0346178263425827,1.0316636562347412,
310432,-0.009441336616873741,-0.008404268883168697,1.0302642583847046,
310442,-0.0024918431881815195,0.004777131136506796,0.9893840551376343,
310452,0.01778770610690117,0.041502464562654495,0.9751326441764832,
310462,0.01947062276303768,0.01966962032020092,0.9795950055122375,
310472,0.0010245108278468251,0.025333518162369728,1.027506709098816,
310482,-0.036368511617183685,-0.020992491394281387,1.0463138818740845,
310492,6.640430365223438e-05,0.01951555162668228,1.004016399383545,
310502,0.016491413116455078,-0.005617153365164995,0.9617286920547485,
310512,0.0005532737704925239,0.029531357809901237,1.0061486959457397,
310522,0.002292365999892354,-0.009736314415931702,1.0184136629104614,
310532,0.01010502316057682,0.03391604125499725,1.0140893459320068,
310542,0.003611156949773431,-0.013271769508719444,0.9882010817527771,
310552,-0.011737861670553684,0.0080391401425004,0.9881753325462341,
310562,0.006901738699525595,-0.005219010170549154,0.9802539944648743,
310572,-0.0021034691017121077,-0.009336459450423717,1.0289665460586548,
310582,-0.020310167223215103,-0.01107391994446516,1.0443081855773926,
310592,-0.010215665213763714,0.017677566036581993,1.0270894765853882,
310602,-0.004756801296025515,0.07180455327033997,0.9891007542610168,
310612,0.016595963388681412,0.027740061283111572,1.021999478340149,
310622,0.006018938031047583,-0.01584814116358757,1.0466445684432983,
310632,-0.013664744794368744,0.07735982537269592,1.0142912864685059,
310642,-0.006369011476635933,0.04476542770862579,1.0352526903152466,
310652,0.010037538595497608,0.03050871193408966,1.0172232389450073,
310662,0.02315170131623745,-0.034392744302749634,1.0344878435134888,
310672,0.006595677696168423,0.014551877975463867,1.0126631259918213,
310682,-0.001090382575057447,-0.0055505214259028435,0.9952452778816223,
310692,-0.011653165332973003,-0.0026452799793332815,1.00946843624115,
310702,0.009601740166544914,-0.016532354056835175,1.0067893266677856,
310712,0.01447521522641182,-0.0010555986082181334,0.9972515106201172,
310722,0.00317549891769886,0.024792687967419624,0.9870481491088867,
310732,0.008025159128010273,0.03592449799180031,1.0240719318389893,
310742,-0.005615426227450371,-0.013675227761268616,1.041177749633789,
310752,-0.01386457309126854,-0.0071939509361982346,0.9778742790222168,
310762,-0.004908604081720114,0.03193344920873642,0.9480820298194885,
310772,0.024492381140589714,0.06474708765745163,1.0215727090835571,
310782,-0.006395838223397732,0.03542783111333847,1.0079644918441772,
310792,-0.0006468930514529347,0.03495978191494942,1.0094242095947266,
310802,0.005780085455626249,0.0017990429187193513,1.0017634630203247,
310812,-0.0023227944038808346,0.032582323998212814,0.9821509718894958,
310822,-0.006370241288095713,0.03783215954899788,0.9866297841072083,
310832,0.031193003058433533,0.0048708366230130196,0.9261746406555176,
310842,-0.017466280609369278,-0.029421815648674965,0.9828886389732361,
310852,-0.011135862208902836,-0.016514696180820465,1.0049110651016235,
310862,-0.0007732623489573598,0.029472097754478455,0.9761318564414978,
310872,0.020910579711198807,0.06693160533905029,0.9492270350456238,
310882,0.0010033368598669767,0.026080917567014694,0.9898629784584045,
310892,-0.02355809509754181,0.007371764164417982,0.9686511158943176,
310902,0.01683531515300274,0.0686618834733963,0.9740527868270874,
310912,-0.018298745155334473,0.020047752186655998,1.024513602256775,
310922,-0.008246325887739658,0.044769126921892166,0.9836960434913635,
310932,-0.001399487373419106,0.003219258040189743,0.9876149892807007,
310942,0.0002018312952714041,-0.021822497248649597,0.9925386905670166,
310952,-0.01200078334659338,0.015213892795145512,0.9688622951507568,
310962,-0.004600812215358019,0.000318032136419788,0.9664366841316223,
310972,-0.006622206885367632,-0.0074423509649932384,0.9861941933631897,
310982,-0.0034969125408679247,-0.013723996467888355,0.9664350152015686,
310992,0.0006370601477101445,-0.014274762943387032,0.9701635241508484,
311002,-0.027195250615477562,0.014018950052559376,0.9985374808311462,
311012,-0.0021147511433809996,0.017831530421972275,0.9889342784881592,
311022,0.011443073861300945,0.08825443685054779,0.9682410359382629,
311032,0.023826096206903458,0.022035470232367516,1.012821078300476,
311042,-0.011982896365225315,0.011217941530048847,1.0091992616653442,
311052,-0.0025653799530118704,-0.0023835254833102226,0.9924415349960327,
311062,-0.010251323692500591,0.05876195430755615,0.9985358715057373,
311072,0.006555635016411543,0.01565600372850895,0.9547910690307617,
311082,-0.024838127195835114,-0.013303764164447784,1.0229134559631348,
311092,0.008557154797017574,0.00605032267048955,0.9772201180458069,
311102,0.009495589882135391,-0.010856607928872108,0.982442319393158,
311112,-0.011141370050609112,0.06132076680660248,1.0122807025909424,
311122,-0.029976369813084602,-0.014607632532715797,1.0180305242538452,
311132,-0.004444983787834644,0.06247425451874733,0.969228982925415,
311142,0.02273860014975071,0.04136284440755844,1.0142745971679688,
311152,-0.013647882267832756,0.04041784256696701,1.0308253765106201,
311162,-0.007059630937874317,0.038224976509809494,0.9839853644371033,
311172,-0.012048181146383286,0.01117772702127695,0.9776313900947571,
311182,0.018302513286471367,-0.010689383372664452,0.9722698330879211,
311192,-0.01791488379240036,-0.01602485589683056,1.0347704887390137,
311202,-0.009112151339650154,-0.0026105684228241444,1.0314698219299316,
311212,-0.014968317933380604,0.034112729132175446,1.0144422054290771,
311222,-0.004652692005038261,0.016338810324668884,0.968316376209259,
311232,0.019421176984906197,0.06840753555297852,1.013150691986084,
311242,-0.0019958787597715855,-0.005080976989120245,1.0596953630447388,
311252,-0.016371674835681915,0.0023980732075870037,1.0236631631851196,
311262,0.006143108941614628,-0.02506333962082863,1.009614109992981,
311272,-0.0049071176908910275,0.02060232125222683,1.0006482601165771,
311282,0.008419167250394821,-0.020497992634773254,1.018019676208496,
311292,-0.0006120242178440094,-0.013171562924981117,1.031139612197876,
311302,-0.014393343590199947,0.013777622953057289,1.043524146080017,
311312,-0.000804792158305645,-0.001031779684126377,1.022251009941101,
311322,-0.01722470484673977,-0.006230647675693035,1.0011433362960815,
311332,0.005679360590875149,0.027378922328352928,0.9801676273345947,
311342,0.0021884769666939974,0.025031019002199173,1.001634120941162,
311352,-0.0064960988238453865,0.00801673624664545,1.0049666166305542,
311362,-0.010978158563375473,-0.01867286115884781,1.0088969469070435,
311372,-0.003833192866295576,0.05703604966402054,1.0107378959655762,
311382,-0.013462051749229431,0.027754584327340126,0.9849683046340942,
311392,-0.0021180445328354836,0.002038458129391074,1.0123226642608643,
311402,-0.0034467431250959635,0.0016339028952643275,0.9965009689331055,
311412,-0.005742092616856098,-0.022278130054473877,0.9956896305084229,
311422,0.0072407652623951435,0.05815296620130539,0.9816886186599731,
311432,0.019979046657681465,0.05878983810544014,0.9508468508720398,
311442,-0.009047326631844044,0.043633539229631424,1.0119445323944092,
311452,-0.03613533079624176,0.010087347589433193,1.0027551651000977,
311462,-0.032971110194921494,0.06830763816833496,0.9946041107177734,
311472,0.0075147030875086784,0.07061512023210526,0.9787048697471619,
311482,-0.006999772507697344,0.0029178273398429155,1.0143582820892334,
311492,0.010214678011834621,-0.0012648503761738539,1.0060906410217285,
311502,-0.007105746306478977,0.012464141473174095,0.9884240627288818,
311512,-0.002366583328694105,-0.0021842666901648045,0.9976922869682312,
311522,0.02609790861606598,0.03669475018978119,0.952868640422821,
311532,-0.008413707837462425,0.026630062609910965,0.9989722967147827,
311542,-0.029439197853207588,0.02752995304763317,1.003010630607605,
311552,-0.039620399475097656,0.02879926562309265,0.9896714687347412,
311562,0.002365756779909134,0.08099064975976944,0.9812153577804565,
311572,0.020463718101382256,0.009979779832065105,0.9946578145027161,
311582,0.003858789801597595,-0.009095984511077404,0.9924470782279968,
311592,-0.02084553800523281,-0.01992623694241047,1.0168663263320923,
311602,-0.009751041419804096,-0.02241896465420723,0.9804376363754272,
311612,0.0007308750646188855,0.025841016322374344,0.9727085828781128,
311622,-0.0025597838684916496,0.01061159372329712,1.0139671564102173,
311632,-0.02137329988181591,0.027303852140903473,1.0166105031967163,
311642,-0.03265721723437309,0.05067411810159683,0.9801642894744873,
311652,0.011911014094948769,0.052466362714767456,0.9855655431747437,
311662,0.0005230793613009155,0.0018615471199154854,0.999582052230835,
311672,-0.010430555790662766,0.020176798105239868,1.002889633178711,
311682,-0.011802297085523605,0.0038623700384050608,1.0077173709869385,
311692,0.0029734864365309477,0.0009391578496433794,0.9618884921073914,
311702,0.005574652459472418,0.021608220413327217,0.964432954788208,
311712,0.010620820336043835,-0.02536274492740631,1.0319322347640991,
311722,-0.0076706307008862495,0.00023280557070393115,1.0193341970443726,
311732,-0.016678571701049805,0.041722528636455536,0.9923850893974304,
311742,0.002644265303388238,0.06601182371377945,0.9899470210075378,
311752,0.017713699489831924,-0.006844501011073589,1.0106879472732544,
311762,0.004651281051337719,0.011409945785999298,1.0133692026138306,
311772,-0.01568422093987465,-0.0040979632176458836,1.0068110227584839,
311782,-0.013536005280911922,0.020892053842544556,0.9795912504196167,
311792,0.01378676574677229,0.07865187525749207,0.9547339081764221,
311802,-0.010183208622038364,0.005078946240246296,1.0327686071395874,
311812,-0.008136607706546783,0.01874929666519165,1.0067709684371948,
311822,0.0133094172924757,-0.003597460687160492,0.9979125261306763,
311832,-0.013567807152867317,0.07794727385044098,1.0038548707962036,
311842,-0.0017793357837945223,0.007016671821475029,0.9977816939353943,
311852,-0.022977251559495926,-0.010065820999443531,1.0107882022857666,
311862,0.016933606937527657,0.009682685136795044,0.9720283150672913,
311872,6.843910523457453e-05,-0.020015886053442955,0.993799090385437,
311882,-0.003137954045087099,0.05747545510530472,1.0044398307800293,
311892,-0.007916324771940708,0.015973461791872978,0.9874075651168823,
311902,0.009159881621599197,0.07122763246297836,0.9578379988670349,
311912,0.0025521728675812483,0.027143344283103943,1.0163993835449219,
311922,-0.006074993871152401,0.05421054735779762,1.018881916999817,
311932,-0.006321565248072147,0.03219012916088104,0.9968208074569702,
311942,-0.014634676277637482,0.005876927636563778,0.9891561269760132,
311952,4.9654272515908815e-06,-0.009340697899460793,0.997833251953125,
311962,-0.0203977283090353,-0.009157256223261356,1.0232954025268555,
311972,0.011976598761975765,0.014856260269880295,0.9578667879104614,
311982,0.004881168249994516,-0.019535550847649574,0.9866174459457397,
311992,-0.019784463569521904,-0.015750981867313385,1.0239055156707764,
312002,-0.015129401348531246,0.0032525223214179277,1.0090246200561523,
312012,-0.008987067267298698,0.024810494855046272,0.9847008585929871,
312022,0.01586872898042202,0.0122504448518157,1.0030810832977295,
312032,-0.008449370041489601,0.007360102608799934,1.0206655263900757,
312042,-0.0074509261175990105,-0.007722777314484119,1.0164475440979004,
312052,-0.006919786799699068,0.0006711964961141348,1.0208302736282349,
312062,0.0002766408724710345,0.008850856684148312,0.9911662340164185,
312072,0.016505319625139236,0.043141789734363556,0.9775665998458862,
312082,0.03668656945228577,-0.022224394604563713,1.0113791227340698,
312092,-0.03486179560422897,-0.006686089560389519,1.0310763120651245,
312102,-0.009982211515307426,0.010029532015323639,0.9784829020500183,
312112,0.011621862649917603,0.0788799449801445,1.0062156915664673,
312122,0.022056525573134422,0.03759026527404785,1.012630820274353,
312132,-0.004842264577746391,-0.006694535259157419,1.0300610065460205,
312142,-0.004536439199000597,-0.006688925437629223,1.0165469646453857,
312152,-0.0008472537156194448,0.02930782176554203,0.9808347225189209,
312162,0.013980439864099026,0.03138585388660431,0.9818626046180725,
312172,0.037358228117227554,0.01715029776096344,0.966788113117218,
312182,-0.0014139952836558223,-0.000633432122413069,1.0153095722198486,
312192,-5.386571865528822e-05,0.022252095863223076,1.008413553237915,
312202,-0.01993418112397194,0.03710624948143959,1.0095622539520264,
312212,0.0031887947116047144,0.04281285032629967,0.9896581172943115,
312222,-0.007954451255500317,0.02395767904818058,0.9921350479125977,
312232,0.007847022265195847,0.005765829235315323,0.9852840900421143,
312242,-0.015123305842280388,-0.016014060005545616,1.016054391860962,
312252,-0.00798422284424305,-0.014679426327347755,1.0303064584732056,
312262,-0.01564136892557144,0.01221333909779787,1.041573166847229,
312272,-0.007446528412401676,0.022568685933947563,1.0327156782150269,
312282,-0.01583855226635933,0.019901422783732414,1.004535436630249,
312292,0.002972364891320467,0.0013015172444283962,0.9795643091201782,
312302,0.011005338281393051,0.028762686997652054,0.9766694903373718,
312312,0.03572529926896095,0.07890249788761139,1.0321471691131592,
312322,0.00862716231495142,0.01665974222123623,1.0282844305038452,
312332,-0.011583968997001648,-0.008696947246789932,1.0428380966186523,
312342,0.006904528941959143,-4.856343366554938e-05,0.9963394403457642,
312352,0.006141643971204758,0.02106970176100731,1.0367662906646729,
312362,-0.006621079053729773,0.03368660435080528,1.0346165895462036,
312372,-0.004479594994336367,-0.012292325496673584,1.024928092956543,
312382,0.0010353930993005633,-0.005448035430163145,0.9992077350616455,
312392,0.007060487754642963,0.019034069031476974,0.9876073598861694,
312402,0.02112719975411892,0.05574868246912956,0.9816195964813232,
312412,0.016000406816601753,0.04507758095860481,1.013257384300232,
312422,-0.012130657210946083,-0.021537965163588524,1.0526609420776367,
312432,-0.013548504561185837,0.03366728127002716,1.0146784782409668,
312442,0.008460166864097118,-0.013421601615846157,0.9694090485572815,
312452,0.021946454420685768,0.042026400566101074,0.9808772206306458,
312462,0.02027466706931591,0.019835563376545906,1.0130605697631836,
312472,-0.01928887702524662,0.03168162330985069,1.0213209390640259,
312482,0.003580803517252207,-0.006456123664975166,0.9866529107093811,
312492,-0.005758416373282671,-0.0018305148696526885,0.9901795387268066,
312502,0.006246594712138176,-0.006666487082839012,0.9725283980369568,
312512,0.004414696246385574,-0.005384175106883049,0.9736435413360596,
312522,0.006403300911188126,0.016391770914196968,0.9914873242378235,
312532,-0.004779035225510597,0.01848391629755497,1.0385743379592896,
312542,-0.0094101307913661,0.020961439236998558,0.9948925375938416,
312552,0.017322810366749763,0.04495558515191078,0.9607235789299011,
312562,0.010019299574196339,0.013161653652787209,0.9708314538002014,
312572,-0.005632591433823109,0.04836573824286461,0.9944568872451782,
312582,-0.025325002148747444,-0.0015530369710177183,0.9787492156028748,
312592,-0.008669018745422363,0.07886556535959244,0.9555684924125671,
312602,0.05028858780860901,0.007466673851013184,0.9838723540306091,
312612,-0.035450130701065063,-0.02429974637925625,1.0095914602279663,
312622,0.005567619111388922,-0.005831175483763218,0.9775190949440002,
312632,0.01964537240564823,0.05230216309428215,0.9773371815681458,
312642,0.017751021310687065,0.010239042341709137,1.0051836967468262,
312652,-0.0039341808296740055,0.03176690638065338,0.9787917137145996,
312662,-0.0121683394536376,0.015401465818285942,0.9746740460395813,
312672,-0.012496091425418854,0.006577473133802414,0.9836633801460266,
312682,0.0050400071777403355,-0.003152421209961176,0.949500560760498,
312692,-0.0017382347723469138,-0.011860314756631851,0.990618884563446,
312702,0.003797555807977915,0.009155336767435074,0.9952091574668884,
312712,-0.002221828093752265,0.03152677044272423,1.0275429487228394,
312722,-0.014982442371547222,0.004371350631117821,1.0241302251815796,
312732,-0.024720191955566406,0.024761421605944633,0.9925140738487244,
312742,0.00018658957560546696,0.03145573288202286,0.9856482744216919,
312752,0.009639425203204155,0.05887165293097496,0.974224328994751,
312762,0.01870926283299923,0.002932976698502898,1.0120253562927246,
312772,0.01712774485349655,0.01659412682056427,1.0110185146331787,
312782,0.02068817801773548,0.03565523028373718,1.0479298830032349,
312792,0.007242980413138866,-0.026318371295928955,1.0950901508331299,
312802,-0.00661758566275239,0.09148985892534256,1.0222481489181519,
312812,-0.01712513528764248,0.05342772230505943,1.022247076034546,
312822,-0.006257777102291584,0.05637379735708237,1.0021750926971436,
312832,0.006021897308528423,0.04200993478298187,0.9907996654510498,
312842,-0.00871675182133913,0.058307286351919174,1.0002641677856445,
312852,0.030356699600815773,0.014390685595571995,0.9911709427833557,
312862,-0.01868954300880432,0.012122505344450474,1.0074949264526367,
312872,0.006214919034391642,0.05009771138429642,0.979999303817749,
312882,0.005074721295386553,0.0063035739585757256,1.0175753831863403,
312892,-0.014205079525709152,-0.017246175557374954,1.023051142692566,
312902,0.0061677065677940845,0.039968255907297134,1.0173522233963013,
312912,0.0003047049685847014,-0.00409456342458725,1.029083251953125,
312922,0.006262729875743389,-0.02167884260416031,0.9935277700424194,
312932,0.030834458768367767,0.027764560654759407,0.9673368334770203,
312942,0.003150125266984105,0.017131920903921127,1.012897253036499,
312952,8.414955664193258e-05,0.021150337532162666,0.9965903162956238,
312962,-0.0010182514088228345,0.008545786142349243,0.9747952818870544,
312972,0.017712902277708054,0.03816976770758629,0.9416859149932861,
312982,0.02356397546827793,-0.012027183547616005,0.9693249464035034,
312992,-0.0025509761180728674,0.00776979373767972,0.9958010315895081,
313002,0.002230074955150485,0.042490310966968536,0.9600732326507568,
313012,0.006627086084336042,0.03538573905825615,0.9607212543487549,
313022,0.018330629914999008,-0.014297961257398129,1.0148311853408813,
313032,-0.00953992921859026,0.03859945014119148,0.9832402467727661,
313042,-0.0019178928341716528,0.03863103687763214,0.9536392688751221,
313052,0.019405145198106766,0.06523995846509933,0.9660401940345764,
313062,0.02574275992810726,0.036473456770181656,0.9937463402748108,
313072,-0.021562011912465096,0.036664512008428574,1.0169870853424072,
313082,0.004411498550325632,0.008526045829057693,0.9644927382469177,
313092,-0.012555679306387901,0.031114820390939713,0.9431343674659729,
313102,0.014344556257128716,-0.006942332722246647,0.9863975048065186,
313112,-0.005137591622769833,0.017060747370123863,0.9826211333274841,
313122,-0.011664997786283493,-0.010380247607827187,0.9778843522071838,
313132,-0.011961020529270172,0.0067857252433896065,0.9917590618133545,
313142,0.028298374265432358,0.03176521137356758,0.9203873872756958,
313152,0.001114215818233788,-0.006876255851238966,0.9738863110542297,
313162,-0.001426089322194457,-0.011300846934318542,1.044657826423645,
313172,0.003977465443313122,0.009461828507483006,1.0144927501678467,
313182,0.011607849970459938,-0.03339143469929695,1.0128213167190552,
313192,0.022428883239626884,0.021954132243990898,0.9728930592536926,
313202,0.019695747643709183,0.027047747746109962,0.9652462601661682,
313212,-0.01860625110566616,0.0018569447565823793,1.0233935117721558,
313222,0.0038211846258491278,0.015410160645842552,1.0101121664047241,
313232,0.015060968697071075,0.009637422859668732,0.9862738251686096,
313242,-0.008218596689403057,0.007049515377730131,0.9795886874198914,
313252,0.007536693010479212,0.054834235459566116,0.9789449572563171,
313262,-0.000950487912632525,0.024664193391799927,1.0199558734893799,
313272,0.0032260301522910595,-0.029239602386951447,1.057745337486267,
313282,0.002171018160879612,0.06042077764868736,1.0306776762008667,
313292,-0.013992959633469582,0.010855101980268955,1.0356866121292114,
313302,-0.014183199033141136,0.027845261618494987,1.0160635709762573,
313312,0.0038320841267704964,0.043698228895664215,0.9905301332473755,
313322,0.015321414917707443,0.10689002275466919,0.9487209320068359,
313332,0.03128623589873314,0.06694786995649338,1.0037695169448853,
313342,-0.012028444558382034,-0.01524406298995018,1.0493288040161133,
313352,-0.005497059319168329,0.004119986668229103,1.0231397151947021,
313362,-0.019418776035308838,-0.0039907763712108135,1.0219337940216064,
313372,0.009116970002651215,0.04918915033340454,1.0122578144073486,
313382,0.007659391965717077,0.017347536981105804,1.024254322052002,
313392,-0.017327483743429184,0.005493039730936289,1.013755202293396,
313402,0.010340023785829544,-0.009396316483616829,0.972968578338623,
313412,-0.014473062939941883,-0.0007621789118275046,0.9965193271636963,
313422,0.004647582303732634,0.00821649469435215,0.9952902793884277,
313432,0.0031436618883162737,-0.0030386573635041714,0.9996326565742493,
313442,-0.01055871695280075,-0.01735576242208481,1.0245513916015625,
313452,-0.01227390393614769,0.017355645075440407,1.0230132341384888,
313462,-0.009234863333404064,0.004939260892570019,1.0276618003845215,
313472,-0.004214887972921133,-0.0107551459223032,1.0074965953826904,
313482,0.0057530831545591354,0.006739395670592785,0.9869743585586548,
313492,0.016884230077266693,0.010429237969219685,1.026223063468933,
313502,-0.0012658113846555352,0.0034672121983021498,0.9932833909988403,
313512,-0.015665585175156593,-0.04640450328588486,1.0436699390411377,
313522,-0.013463878072798252,0.021267171949148178,1.0161113739013672,
313532,0.0018893592059612274,-0.007922866381704807,0.9618245959281921,
313542,0.008644048124551773,0.035770826041698456,0.9647904634475708,
313552,0.026731321588158607,-0.01524914987385273,0.9779967665672302,
313562,-0.015090134926140308,-0.012249089777469635,1.0105373859405518,
313572,-0.0032522804103791714,0.02690340206027031,1.0104265213012695,
313582,-0.0046843006275594234,0.07631157338619232,0.9706772565841675,
313592,0.024807659909129143,0.016764817759394646,1.0078072547912598,
313602,0.011534013785421848,0.014493280090391636,1.0101138353347778,
313612,0.0025919002946466208,0.025761665776371956,0.9857475757598877,
313622,-0.03730146214365959,-0.03751685470342636,0.9986099600791931,
313632,0.0018170048715546727,0.09710300713777542,0.9947171211242676,
313642,-0.0016951814759522676,0.05644433572888374,0.9869359135627747,
313652,-0.010449673049151897,-0.02063131332397461,1.0077282190322876,
313662,0.003535507945343852,0.005182431545108557,0.9967791438102722,
313672,-0.0036111902445554733,0.029820071533322334,0.9621278643608093,
313682,0.006291401572525501,0.024150997400283813,0.9787592887878418,
313692,0.009231959469616413,0.05234029144048691,0.9842703938484192,
313702,0.010151419788599014,0.05605762079358101,0.9584742784500122,
313712,-0.013992898166179657,-0.017963243648409843,0.9957122206687927,
313722,0.016657328233122826,0.010387749411165714,0.9524456262588501,
313732,0.02227570302784443,0.01224958524107933,0.9163937568664551,
313742,-0.03276528790593147,-0.033291369676589966,0.9529682397842407,
313752,-0.010622698813676834,0.0063633243553340435,0.956896185874939,
313762,0.023808950558304787,0.06870249658823013,0.9412708282470703,
313772,-0.013232436031103134,-0.00661099748685956,0.9326057434082031,
313782,-0.017026064917445183,0.016206560656428337,0.9228790998458862,
313792,0.00227454025298357,0.02583412081003189,0.9130741357803345,
313802,0.029343310743570328,0.04804329201579094,0.9046325087547302,
313812,-0.012859705835580826,0.03421661630272865,0.9296450614929199,
313822,0.011414994485676289,0.034593962132930756,0.9320752620697021,
313832,0.010737092234194279,0.04865647852420807,0.9187673330307007,
313842,0.01384211890399456,0.053685177117586136,0.8911934494972229,
313852,5.5818829423515126e-05,0.014338175766170025,0.9335038065910339,
313862,-0.010037906467914581,0.0013454927830025554,0.9399127960205078,
313872,0.0031023321207612753,0.01842356100678444,0.9116554260253906,
313882,-0.005539587698876858,0.019156990572810173,0.8940334320068359,
313892,-0.005696227308362722,-0.00849608238786459,0.9323527216911316,
313902,-0.011325222440063953,-0.013685645535588264,0.9658608436584473,
313912,0.0018195688026025891,0.018015030771493912,0.9019546508789062,
313922,0.013848907314240932,-0.011121721938252449,0.9292870163917542,
313932,0.005914611276239157,-0.006541491951793432,0.9428207278251648,
313942,0.010609148070216179,0.0031456858851015568,0.9669765830039978,
313952,-0.002984596649184823,0.03489578515291214,0.9245140552520752,
313962,0.019073909148573875,-0.007958387956023216,0.9101495146751404,
313972,0.004268057178705931,0.020453305914998055,0.9975296258926392,
313982,-0.018090715631842613,0.02037310227751732,0.9738004207611084,
313992,0.005496577359735966,0.05865498259663582,0.928962767124176,
314002,0.006025983020663261,0.029737917706370354,0.9840508103370667,
314012,-0.013217422179877758,0.01114948745816946,0.9751437902450562,
314022,-0.0027331337332725525,-0.009052027948200703,0.951660692691803,
314032,0.016779642552137375,0.037876274436712265,1.0151143074035645,
314042,0.009172375313937664,0.039468225091695786,0.9942218661308289,
314052,0.0037739661056548357,0.016615282744169235,1.011836290359497,
314062,-0.0022697490639984608,-0.013005224987864494,1.0166600942611694,
314072,-0.007673157844692469,0.005098273046314716,1.0175446271896362,
314082,-0.01657710038125515,-0.00972970575094223,1.0270849466323853,
314092,-0.016005832701921463,0.015153716318309307,1.0494723320007324,
314102,-0.00730309309437871,0.00201517716050148,1.025282621383667,
314112,-0.027662059292197227,0.00010581943206489086,1.0265718698501587,
314122,-0.012323432601988316,0.01581982895731926,1.0257201194763184,
314132,-0.007642232347279787,0.02343684993684292,1.0269408226013184,
314142,-0.033739957958459854,0.015085072256624699,1.0396761894226074,
314152,-0.012314029037952423,0.0034288561437278986,1.035048007965088,
314162,-0.02200726605951786,0.0456010177731514,1.0720425844192505,
314172,-0.011942063458263874,0.015901334583759308,1.0133651494979858,
314182,-0.012717671692371368,0.0356481596827507,1.0419024229049683,
314192,-0.01154576800763607,0.037259675562381744,1.0357270240783691,
314202,-0.008207052946090698,-0.03609035536646843,1.0375961065292358,
314212,-0.02108907699584961,0.018711736425757408,1.0591609477996826,
314222,0.004767460282891989,0.004600957036018372,1.0206598043441772,
314232,0.01039993204176426,0.03221576660871506,1.0254490375518799,
314242,0.028985168784856796,0.014260235242545605,1.021715521812439,
314252,0.007535241544246674,0.022522231563925743,1.0375165939331055,
314262,-0.016082966700196266,0.03232128545641899,1.0196669101715088,
314272,-0.01200191956013441,-0.008068307302892208,1.0423991680145264,
314282,0.009077929891645908,0.0776570588350296,1.0416896343231201,
314292,0.0030264463275671005,0.046705931425094604,1.0456150770187378,
314302,0.005812165793031454,-0.014156724326312542,1.1079319715499878,
314312,0.020951805636286736,0.08036713302135468,1.0639007091522217,
314322,0.029573308303952217,0.006281151901930571,1.0679149627685547,
314332,0.0021776712965220213,0.07763708382844925,1.02801513671875,
314342,-0.0011888063745573163,0.06623269617557526,1.0584806203842163,
314352,0.0033863696735352278,-0.006983405910432339,1.0145870447158813,
314362,-0.00010179769742535427,0.01317508053034544,1.028002142906189,
314372,0.0006115846917964518,0.015675993636250496,1.0838873386383057,
314382,-0.017799783498048782,-0.011160035617649555,1.092163324356079,
314392,-0.008697828277945518,-0.03266165778040886,1.0639029741287231,
314402,0.023955954238772392,0.06753052026033401,1.031835675239563,
314412,0.013405818492174149,0.01672353409230709,1.066334843635559,
314422,-0.0007503379601985216,0.017272284254431725,1.0511237382888794,
314432,0.015022910200059414,0.0739140585064888,1.0250523090362549,
314442,0.006449137814342976,0.013330287300050259,1.042163372039795,
314452,0.004273708444088697,0.051880087703466415,1.0157177448272705,
314462,0.004742654971778393,0.046272460371255875,1.0345799922943115,
314472,-0.001961554167792201,0.012972612865269184,1.0234602689743042,
314482,0.0027109715156257153,0.06466656178236008,1.003960371017456,
314492,0.03002055361866951,0.03379065915942192,1.0108100175857544,
314502,0.02038969099521637,-0.011564777232706547,1.0016611814498901,
314512,0.0094672916457057,-0.006743061821907759,1.0227365493774414,
314522,0.00035851047141477466,0.019170142710208893,0.9784819483757019,
314532,0.0010257234098389745,0.015780257061123848,0.996518075466156,
314542,0.006164368242025375,0.001003605779260397,1.0023267269134521,
314552,0.01624457910656929,0.004588988609611988,1.0068721771240234,
314562,0.007765086367726326,0.0050639924593269825,1.0400530099868774,
314572,0.025193138048052788,0.039207447320222855,1.0210363864898682,
314582,0.01857929304242134,-0.03014107048511505,1.0426722764968872,
314592,-0.03163686394691467,0.01099311001598835,1.0501184463500977,
314602,-0.010958814062178135,-9.934298577718437e-05,1.0215930938720703,
314612,-0.007897029630839825,0.0018983995541930199,1.020106315612793,
314622,-0.029795601963996887,0.00396801857277751,0.9821795225143433,
314632,-0.015550434589385986,0.025110483169555664,0.9448195695877075,
314642,0.0161755308508873,0.09205325692892075,0.9909295439720154,
314652,0.008453186601400375,0.018118368461728096,1.0118565559387207,
314662,0.0010967438574880362,0.017135094851255417,1.0039303302764893,
314672,0.010370512492954731,0.00622085714712739,1.0085500478744507,
314682,-0.004068874288350344,0.01443946361541748,0.9915640950202942,
314692,-0.01706940308213234,-0.013274268247187138,1.0003974437713623,
314702,-0.008320514112710953,0.015807053074240685,1.000317931175232,
314712,0.00014767995162401348,-0.00027485028840601444,0.9906609058380127,
314722,-0.02453048713505268,-0.012398481369018555,0.9973126649856567,
314732,-0.0009855297394096851,0.05557883158326149,0.9860771894454956,
314742,0.006735608447343111,0.03564387559890747,0.9658087491989136,
314752,0.021517915651202202,-0.04311549291014671,1.0333458185195923,
314762,0.013950086198747158,0.08664882928133011,0.9970199465751648,
314772,0.008461939170956612,0.030691785737872124,1.0010489225387573,
314782,-3.1074810976861045e-05,0.020541440695524216,1.0198235511779785,
314792,-0.013226284645497799,0.09305941313505173,0.9992789030075073,
314802,-0.03065667301416397,0.028044940903782845,0.9482033848762512,
314812,-0.009659547358751297,0.09646967053413391,0.9762179255485535,
314822,0.03914336860179901,0.058523692190647125,0.9670024514198303,
314832,0.015856485813856125,-0.011537308804690838,0.9817897081375122,
314842,0.004074594471603632,0.0026798034086823463,0.9676030874252319,
314852,-0.00843060202896595,-0.0035880105569958687,0.9771711826324463,
314862,-0.024749474599957466,-0.01567916013300419,1.0140101909637451,
314872,-0.008709647692739964,0.0183502659201622,1.006728172302246,
314882,0.004649771377444267,0.052998822182416916,0.9854729771614075,
314892,0.00034496490843594074,0.0007100251968950033,0.9973970651626587,
314902,0.01170993223786354,-0.014290859922766685,1.001463770866394,
314912,0.018094906583428383,0.052626293152570724,1.013761043548584,
314922,0.005775074008852243,-0.005048938095569611,1.052883267402649,
314932,-0.0028763562440872192,0.028859790414571762,0.9997528791427612,
314942,-0.02081185393035412,0.03459472209215164,1.0072064399719238,
314952,-0.025939760729670525,0.028900790959596634,0.9904801845550537,
314962,0.013032713904976845,0.051910270005464554,0.973095178604126,
314972,0.013708234764635563,-0.021377848461270332,0.955508291721344,
314982,0.023510774597525597,0.012510420754551888,0.974384069442749,
314992,-0.007227462250739336,-0.017699074000120163,1.01152765750885,
315002,-0.016847314313054085,0.012125968001782894,1.0260288715362549,
315012,-0.004269719123840332,0.008525501936674118,1.0118523836135864,
315022,-0.008713627234101295,-0.012773609720170498,1.0272347927093506,
315032,-0.013944693841040134,0.001002230099402368,1.0349647998809814,
315042,-0.00534360995516181,0.02506599947810173,1.0289753675460815,
315052,-0.00736989127472043,-0.014349315315485,1.0582859516143799,
315062,-0.006150675937533379,0.011407150886952877,1.0069862604141235,
315072,-0.0024616015143692493,0.016407432034611702,0.9982848167419434,
315082,-0.011631013825535774,0.005490179173648357,1.0131847858428955,
315092,0.01791338622570038,0.030599981546401978,0.9792407155036926,
315102,0.016356203705072403,0.021075716242194176,1.0041917562484741,
315112,0.02121110074222088,0.046519696712493896,0.9990953803062439,
315122,0.024245142936706543,-0.017559736967086792,0.9890152215957642,
315132,0.012396007776260376,0.04400673508644104,1.0148534774780273,
315142,0.008582756854593754,0.0247881431132555,1.0253764390945435,
315152,-0.011283163912594318,-0.005395973101258278,1.0308146476745605,
315162,0.01059270091354847,-0.0021199770271778107,0.984194278717041,
315172,-0.0019348222995176911,-0.03500252962112427,0.9871653318405151,
315182,0.00017193655367009342,0.02134777046740055,1.0359221696853638,
315192,0.008442940190434456,0.050771988928318024,1.0374500751495361,
315202,-0.014623760245740414,-0.02030043676495552,1.0420583486557007,
315212,0.0012083955807611346,0.013878163881599903,1.0293800830841064,
315222,-0.003656109096482396,0.028701595962047577,1.0086554288864136,
315232,-0.00796517450362444,-0.0308290496468544,1.0066916942596436,
315242,0.027767391875386238,0.07239978015422821,0.9701061248779297,
315252,0.020593687891960144,0.013908028602600098,0.9512484073638916,
315262,-0.013388172723352909,-0.013868115842342377,1.0065436363220215,
315272,0.027438310906291008,0.07720021158456802,0.9766653776168823,
315282,-0.015576266683638096,-0.00843684934079647,1.045276403427124,
315292,-0.013598160818219185,0.06751491874456406,1.0227031707763672,
315302,0.01849997788667679,0.02768353372812271,1.0495482683181763,
315312,-0.040858443826436996,-0.0019595669582486153,1.0201959609985352,
315322,0.0042197853326797485,0.03768628090620041,1.0074565410614014,
315332,-0.007094521075487137,0.03291645646095276,1.026150107383728,
315342,-0.0008806137484498322,-0.014634721912443638,0.9917216300964355,
315352,-0.0006374522927217185,0.05551942065358162,0.9735254645347595,
315362,0.003825668478384614,0.01145908609032631,0.9944730401039124,
315372,0.005854829214513302,0.005320671480149031,0.9959372282028198,
315382,0.006181007716804743,0.028885697945952415,0.9962059259414673,
315392,0.004196533467620611,0.020904989913105965,0.9729673266410828,
315402,0.004981084726750851,0.024257026612758636,1.0142654180526733,
315412,0.019293952733278275,0.038867365568876266,0.9979742169380188,
315422,-0.014445413835346699,0.0014946311712265015,1.0405479669570923,
315432,-6.382088758982718e-05,0.013180668465793133,1.0339319705963135,
315442,0.025333460420370102,0.01608916185796261,1.0373724699020386,
315452,0.013654262758791447,0.0037080913316458464,1.035811424255371,
315462,0.013403930701315403,0.012028521858155727,1.0271860361099243,
315472,-0.014380667358636856,-0.006264463532716036,1.0651288032531738,
315482,-0.01742958091199398,-0.007890533655881882,1.0350322723388672,
315492,-0.003305769292637706,0.010714720003306866,1.0090057849884033,
315502,0.0059617129154503345,0.017911000177264214,0.9864086508750916,
315512,0.004747097846120596,0.008480699732899666,0.96867835521698,
315522,0.011111339554190636,0.02462068386375904,0.9792652130126953,
315532,0.015215608291327953,0.011131133884191513,0.9831761717796326,
315542,0.02471255324780941,0.04882756993174553,0.952739417552948,
315552,0.032560791820287704,-0.0004757863353006542,0.9727498292922974,
315562,0.009949137456715107,0.0011173931416124105,1.0205357074737549,
315572,0.018206097185611725,0.04319838434457779,1.0071468353271484,
315582,-0.01547087449580431,-0.006298889871686697,1.0576261281967163,
315592,-0.012522309087216854,0.02213839255273342,1.026752233505249,
315602,-0.004296970088034868,-0.01230918150395155,1.0610350370407104,
315612,-0.030646376311779022,-0.008100101724267006,1.019507884979248,
315622,-0.002668993081897497,0.02723594196140766,1.0164543390274048,
315632,-0.013144141063094139,0.015471518971025944,0.9988298416137695,
315642,0.0005730082630179822,0.01693723537027836,0.9860281348228455,
315652,0.020815517753362656,0.07119151949882507,0.955170214176178,
315662,0.009757764637470245,0.02898460067808628,0.9964586496353149,
315672,0.011354207992553711,0.012661325745284557,0.9885208606719971,
315682,0.02250547707080841,0.04954114928841591,1.0024445056915283,
315692,-0.0019508213736116886,-0.018912509083747864,1.0578598976135254,
315702,-0.00722467340528965,0.0458928607404232,1.0119729042053223,
315712,-0.015321516431868076,0.04678284376859665,0.9587786197662354,
315722,-0.015900442376732826,0.012655582278966904,0.9792875647544861,
315732,0.004933559335768223,0.06685154885053635,0.9610685706138611,
315742,-0.011380401439964771,0.005539908539503813,0.9660178422927856,
315752,-0.008937702514231205,0.07274600863456726,0.9516173005104065,
315762,0.0364527627825737,0.010180018842220306,1.0176072120666504,
315772,0.004117957782000303,0.0022485130466520786,1.0039892196655273,
315782,0.00869718287140131,0.030452247709035873,1.0102258920669556,
315792,-0.0014164618914946914,0.013391914777457714,1.0007078647613525,
315802,-0.007261454127728939,0.019685715436935425,0.979439914226532,
315812,0.01593272015452385,0.05314236134290695,0.9622446894645691,
315822,0.026176517829298973,0.03798717260360718,0.9648001194000244,
315832,0.005903008859604597,-0.002117642667144537,1.0110833644866943,
315842,0.011304739862680435,0.016314567998051643,1.031339406967163,
315852,-0.0005755467573180795,0.018330898135900497,0.9967600703239441,
315862,0.007372609805315733,0.02097320929169655,1.0128545761108398,
315872,0.003341645933687687,0.03800864517688751,0.9866365790367126,
315882,0.0012823945144191384,0.00634954497218132,1.0037617683410645,
315892,0.01575300842523575,0.024803401902318,1.0022670030593872,
315902,0.02251354418694973,0.03479016199707985,1.0094763040542603,
315912,0.009718533605337143,-0.022590357810258865,0.974417507648468,
315922,0.013238122686743736,0.00215438986197114,0.9983824491500854,
315932,0.014067624695599079,0.012015274725854397,0.995786726474762,
315942,-0.009482084773480892,0.015545258298516273,1.0086302757263184,
315952,-0.012292293831706047,0.02113928087055683,1.0320976972579956,
315962,-0.012311154045164585,-0.0006566100055351853,0.9916567802429199,
315972,-0.031656019389629364,0.037009142339229584,1.013751745223999,
315982,0.0011669450905174017,0.03621638938784599,1.005524754524231,
315992,-0.019018683582544327,0.022158922627568245,0.9769617319107056,
316002,0.0010396953439339995,0.05134475603699684,0.999347448348999,
316012,0.0010547487763687968,0.007669792510569096,0.9929114580154419,
316022,-0.009891485795378685,0.08491301536560059,0.9795613884925842,
316032,0.01827528327703476,0.051095519214868546,1.004290223121643,
316042,0.01264280080795288,0.04051576554775238,0.9827228784561157,
316052,0.0178141538053751,0.08132123947143555,0.9953768253326416,
316062,0.020755602046847343,0.02243793196976185,1.0062326192855835,
316072,0.01832890696823597,0.05847448855638504,0.9778316617012024,
316082,0.022364964708685875,0.04297157749533653,1.0220718383789062,
316092,0.011128409765660763,0.0023546188604086637,1.0395164489746094,
316102,0.008432320319116116,0.02178208716213703,1.0419694185256958,
316112,-0.012494795024394989,-0.01003960706293583,1.0513523817062378,
316122,-0.006280993111431599,0.024997901171445847,1.0304781198501587,
316132,0.0020071498584002256,0.028295252472162247,1.0373798608779907,
316142,-0.00731787271797657,-0.005726916249841452,1.0415549278259277,
316152,-0.011341745033860207,0.01944456808269024,1.0582612752914429,
316162,-0.014537525363266468,-0.0052996063604950905,1.0662301778793335,
316172,0.0049112592823803425,0.0032534650526940823,1.0258735418319702,
316182,-0.019474908709526062,0.016211358830332756,1.0534261465072632,
316192,-0.004396600183099508,0.011575017124414444,1.0161799192428589,
316202,0.0025129232089966536,0.011744190938770771,0.9917930364608765,
316212,-0.006171453278511763,0.013649347238242626,0.9942790865898132,
316222,0.0034914531279355288,0.0021675764583051205,0.9660966396331787,
316232,-0.01502208411693573,0.00501544214785099,0.9953275322914124,
316242,0.006000680848956108,0.015719162300229073,0.9988742470741272,
316252,0.005026442464441061,0.0078088147565722466,0.9891529679298401,
316262,-0.011160429567098618,-0.006632249802350998,1.023634910583496,
316272,0.004081313498318195,0.022049453109502792,0.9602070450782776,
316282,0.00810586754232645,0.009221327491104603,0.983889102935791,
316292,0.011727132834494114,-0.004031514748930931,0.9958141446113586,
316302,-0.006005258299410343,0.02394362911581993,0.9801684617996216,
316312,-0.0037533496506512165,0.03997228294610977,0.9731200337409973,
316322,-0.010276677086949348,0.05393029749393463,0.9695026278495789,
316332,0.0020634904503822327,0.013001051731407642,0.9766677618026733,
316342,-0.01769956946372986,0.029810933396220207,0.9927682280540466,
316352,0.004177623428404331,0.032987602055072784,0.9913101196289062,
316362,-0.01829722709953785,-0.0334586575627327,0.9957780241966248,
316372,-0.011145747266709805,0.09704165160655975,0.982732892036438,
316382,0.04885547235608101,0.018594838678836823,0.9205986261367798,
316392,0.001361984177492559,0.03570488095283508,0.9521007537841797,
316402,0.030161289498209953,0.0705002024769783,1.0288132429122925,
316412,-0.01090848259627819,-0.0008384929969906807,1.0392343997955322,
316422,-0.010903077200055122,0.007966259494423866,0.9879672527313232,
316432,0.012574655935168266,0.09764666110277176,0.9592738747596741,
316442,0.03681939095258713,0.05779210105538368,1.0002318620681763,
316452,0.016102807596325874,-0.043987080454826355,1.0670086145401,
316462,-0.004715904127806425,0.038943253457546234,1.016606330871582,
316472,-0.035512395203113556,0.003498111618682742,1.0065644979476929,
316482,0.004621103405952454,0.03599388152360916,0.9851082563400269,
316492,0.028168093413114548,0.0694543793797493,0.9572275876998901,
316502,0.0071773044764995575,0.06515241414308548,0.9699891209602356,
316512,-0.006164339371025562,0.003602545941248536,1.0050530433654785,
316522,-0.010384172201156616,0.008126928471028805,1.0155197381973267,
316532,-0.0037638903595507145,0.04204018414020538,0.9455362558364868,
316542,-0.009752856567502022,0.009547128342092037,0.936630129814148,
316552,0.014360044151544571,0.04399484023451805,0.9639550447463989,
316562,0.009413178078830242,-0.03262639790773392,0.9804918766021729,
316572,-0.0442618653178215,-0.0064546819776296616,1.0334762334823608,
316582,-0.006944788154214621,0.011019439436495304,0.9991273283958435,
316592,0.011881791055202484,0.04289833828806877,0.97664475440979,
316602,0.013523397035896778,0.01997397653758526,0.9790477156639099,
316612,0.013780634850263596,0.004067725036293268,0.9958219528198242,
316622,0.008958781138062477,0.0606679767370224,1.0145914554595947,
316632,0.0177401565015316,0.00042626881622709334,1.0424829721450806,
316642,-0.012616087682545185,0.006759894546121359,1.0125726461410522,
316652,-0.004829859361052513,0.031713735312223434,0.9879447221755981,
316662,-0.0025356586556881666,0.03748798370361328,0.9681005477905273,
316672,-0.014338460750877857,-0.0008587372722104192,0.9873719215393066,
316682,0.0005312549183145165,-0.002675558440387249,1.004298448562622,
316692,0.0019915327429771423,0.047818370163440704,1.0276089906692505,
316702,0.0176529623568058,0.01497295405715704,1.0464423894882202,
316712,-0.008228210732340813,0.0073127346113324165,1.0277045965194702,
316722,-0.004286779090762138,-0.008775802329182625,0.9831863045692444,
316732,0.020598214119672775,0.05692238733172417,0.9816147089004517,
316742,0.0052438760176301,0.015812041237950325,1.0026813745498657,
316752,-0.025510281324386597,-0.0014927256852388382,1.028812289237976,
316762,0.005828568246215582,0.003973241429775953,1.0092754364013672,
316772,0.008018407970666885,0.014387388713657856,0.9742523431777954,
316782,0.012143796309828758,0.019630372524261475,1.00205397605896,
316792,0.011599461548030376,0.012407716363668442,0.9998890161514282,
316802,0.007246894761919975,0.02059864066541195,1.0014559030532837,
316812,0.00542671512812376,-0.019016778096556664,1.0410574674606323,
316822,0.0003494660195428878,-0.0017779869958758354,1.0311013460159302,
316832,0.006097492296248674,-0.018426889553666115,1.0128841400146484,
316842,-0.0011796398321166635,0.0038458514027297497,1.0169776678085327,
316852,-0.011747065000236034,-0.004124931059777737,1.0325963497161865,
316862,0.0097803408280015,0.00448612030595541,1.0081474781036377,
316872,0.009023379534482956,-0.01808568835258484,1.015637993812561,
316882,-0.0008693643612787127,0.024655552580952644,1.0066121816635132,
316892,-0.0072233411483466625,0.012209071777760983,1.0305708646774292,
316902,0.0023772558197379112,-0.00989311933517456,0.9907194375991821,
316912,0.0008308972464874387,0.02446381188929081,1.0161231756210327,
316922,0.02986595593392849,0.037862684577703476,1.0041640996932983,
316932,-0.005834395997226238,-0.001531191635876894,1.0205167531967163,
316942,-0.001434494974091649,0.0018192220013588667,1.0139751434326172,
316952,-0.010057689622044563,0.025142015889286995,1.0292515754699707,
316962,-0.028735755011439323,-0.014018990099430084,1.0429579019546509,
316972,-0.01826738566160202,-0.013296202756464481,1.0020941495895386,
316982,-0.028175996616482735,0.056534696370363235,1.0268968343734741,
316992,0.006910730618983507,-0.014310033060610294,0.9574449062347412,
317002,0.006094351876527071,0.024332817643880844,0.9752017259597778,
317012,0.01624186336994171,0.03491441160440445,0.9799004197120667,
317022,0.015931226313114166,0.004766762722283602,0.9737164974212646,
317032,-0.0020126057788729668,0.03258080035448074,0.9905450940132141,
317042,0.00935289729386568,0.005932005122303963,1.0094754695892334,
317052,-0.008616181090474129,0.013997884467244148,1.0394233465194702,
317062,0.009105542674660683,0.0003600896743591875,0.9987741112709045,
317072,-0.014550306834280491,0.0061899395659565926,1.037658929824829,
317082,-0.024084335193037987,-0.00933282170444727,1.008763313293457,
317092,-0.03457744047045708,-0.019154705107212067,0.9984982013702393,
317102,-0.02982034906744957,0.051324352622032166,1.0133987665176392,
317112,0.004087041597813368,0.007086192723363638,0.9519276022911072,
317122,-0.0052236393094062805,0.015056860633194447,0.9755720496177673,
317132,0.01361713744699955,0.028691409155726433,0.9766907095909119,
317142,0.018603000789880753,-0.0033034596126526594,0.9635039567947388,
317152,0.002218501875177026,0.02885993756353855,0.9896425604820251,
317162,0.019496269524097443,0.014108223840594292,1.007907748222351,
317172,-0.022702746093273163,0.00628593610599637,1.0458413362503052,
317182,-0.011516633443534374,0.004916769918054342,1.0210213661193848,
317192,-0.01994766667485237,0.026034358888864517,1.023633360862732,
317202,-0.021248316392302513,0.014248128980398178,1.0002676248550415,
317212,-0.017514044418931007,0.017341922968626022,0.953509509563446,
317222,0.00874026957899332,0.07019007951021194,0.9836997985839844,
317232,0.023445140570402145,-0.0011896999785676599,0.9693540930747986,
317242,-0.0041846828535199165,0.04779062420129776,0.9535319805145264,
317252,0.01729544997215271,0.0507727786898613,1.0019583702087402,
317262,-0.01376932393759489,0.01431216299533844,1.0161854028701782,
317272,0.0021823321003466845,0.01050108764320612,1.0100126266479492,
317282,-0.014390676282346249,0.05863850563764572,0.9717630743980408,
317292,-0.004391660913825035,0.031605951488018036,0.963545024394989,
317302,0.00411575473845005,0.01574321649968624,0.9645776748657227,
317312,0.01055820006877184,0.05648556724190712,0.9619778394699097,
317322,0.012560613453388214,-0.020063921809196472,0.9776486158370972,
317332,-0.02304205298423767,0.04428621008992195,1.006651759147644,
317342,-0.009750915691256523,0.018585655838251114,0.9420079588890076,
317352,-0.02634524181485176,-0.02103245258331299,0.9398568868637085,
317362,0.01594763807952404,0.06819789856672287,0.9560020565986633,
317372,-0.011877798475325108,0.014120994135737419,1.0206514596939087,
317382,-0.031768735498189926,-0.01308020856231451,1.0376496315002441,
317392,-0.00538943475112319,0.07898497581481934,0.9756263494491577,
317402,0.01989869587123394,0.04307902976870537,0.9688647985458374,
317412,0.01453432533890009,-0.004227308090776205,1.01372492313385,
317422,0.006860249675810337,0.11339647322893143,0.9849702715873718,
317432,-0.017411259934306145,0.008527515456080437,0.9848003387451172,
317442,0.0017801132053136826,0.07820335775613785,0.967937171459198,
317452,0.036290962249040604,0.046722475439310074,0.9390900135040283,
317462,-0.026760468259453773,0.0034760686103254557,0.9983349442481995,
317472,-0.01329243928194046,0.03713850677013397,0.9955916404724121,
317482,-0.004790283273905516,0.059411704540252686,0.9905644655227661,
317492,0.0037569638807326555,0.004997306503355503,0.9781237244606018,
317502,0.018977437168359756,0.024385426193475723,0.952407956123352,
317512,0.04441419243812561,0.04284994676709175,1.0077533721923828,
317522,0.0075141023844480515,-0.01377349067479372,1.0341827869415283,
317532,-0.019969742745161057,0.06806022673845291,0.9872390031814575,
317542,-0.015869788825511932,0.0562606118619442,0.9722039103507996,
317552,0.012187089771032333,0.06862957775592804,0.9768417477607727,
317562,0.028857171535491943,0.032090507447719574,1.004195213317871,
317572,0.002553952159360051,0.05221620574593544,0.9840034246444702,
317582,0.0006815523374825716,0.011702942661941051,1.0176072120666504,
317592,-0.02923063188791275,0.012095062993466854,1.0233601331710815,
317602,-0.018941432237625122,0.05881981551647186,1.0116506814956665,
317612,-0.01069706305861473,0.009820794686675072,0.9752450585365295,
317622,0.006770281121134758,0.06024285405874252,0.9837720990180969,
317632,0.01989239640533924,0.012727068737149239,0.9788479208946228,
317642,-0.007962087169289589,0.05962979421019554,0.9776284098625183,
317652,0.027155069634318352,0.03939252719283104,1.0019856691360474,
317662,0.003598051844164729,-0.005245613865554333,1.0223125219345093,
317672,-0.011922089383006096,0.037235140800476074,1.0363471508026123,
317682,0.004724467173218727,-0.011835665442049503,1.0212717056274414,
317692,-0.016040870919823647,0.012615472078323364,1.0359902381896973,
317702,-0.007501837331801653,0.004127620719373226,1.0396199226379395,
317712,-0.022389661520719528,0.009023337624967098,1.024186372756958,
317722,-0.010925665497779846,0.020475400611758232,1.0266101360321045,
317732,-0.009427393786609173,0.02290164679288864,0.9953449368476868,
317742,-0.018868492916226387,0.05354996398091316,0.9931164383888245,
317752,0.004425959195941687,0.01582220569252968,1.0152570009231567,
317762,-0.0038459054194390774,0.05920291319489479,0.9849122762680054,
317772,0.007571116089820862,0.04597115144133568,1.0045210123062134,
317782,0.017175914719700813,-0.008258351124823093,1.0271868705749512,
317792,0.008533444255590439,0.09418793022632599,0.9821037650108337,
317802,0.02604656107723713,0.02954287827014923,1.0342692136764526,
317812,0.016394179314374924,0.04784832522273064,0.994162380695343,
317822,0.025348031893372536,0.07456880062818527,1.0218487977981567,
317832,0.02218008227646351,-0.018669456243515015,1.0920679569244385,
317842,0.0001518267090432346,0.056538064032793045,1.007802128791809,
317852,0.002164592035114765,0.03486485779285431,1.0357054471969604,
317862,-0.015740377828478813,0.0015502475434914231,1.0599216222763062,
317872,-0.0023874167818576097,0.0009088105871342123,1.0206698179244995,
317882,-0.013779392465949059,0.03716696426272392,0.9969072341918945,
317892,0.0015238318592309952,0.05806320905685425,0.9808638691902161,
317902,0.005346548743546009,0.06471875309944153,0.9734787940979004,
317912,0.021167675033211708,0.08285832405090332,0.9701456427574158,
317922,0.029182912781834602,0.00012986897490918636,0.9959656000137329,
317932,-0.012449449859559536,0.051324401050806046,1.0086567401885986,
317942,-0.010883253067731857,0.014556457288563251,0.9732564091682434,
317952,-0.031143859028816223,-0.009242339991033077,0.9802281260490417,
317962,0.010187662206590176,0.07697776705026627,0.947679877281189,
317972,0.027467019855976105,0.011729899793863297,0.9299114346504211,
317982,-0.0019394411938264966,0.015362707898020744,0.9905776381492615,
317992,-0.0020430770236998796,0.06195633485913277,0.9698490500450134,
318002,-0.03475896641612053,0.026809243485331535,1.0162461996078491,
318012,0.013280987739562988,-0.027946174144744873,0.9924578070640564,
318022,0.01836177334189415,0.09830659627914429,0.9592536687850952,
318032,0.018256327137351036,0.0071155009791255,1.0150202512741089,
318042,-0.023201094940304756,-0.01579991541802883,1.0451844930648804,
318052,-0.010576458647847176,0.003302929922938347,0.9849486351013184,
318062,-0.026799554005265236,-0.00613832613453269,0.975830078125,
318072,0.01877443492412567,0.07092266529798508,0.9800172448158264,
318082,0.013234217651188374,0.08585680276155472,0.9955543875694275,
318092,0.018788473680615425,0.024554496631026268,0.9954949617385864,
318102,0.016577083617448807,-0.01766759529709816,0.992805540561676,
318112,-0.00736030749976635,0.04547618329524994,1.0110915899276733,
318122,0.012005600146949291,0.030144060030579567,1.0092376470565796,
318132,-0.0232124924659729,-0.012841708026826382,0.994846522808075,
318142,-0.007991904392838478,0.06195782870054245,1.0323997735977173,
318152,-0.0027126737404614687,0.02460559457540512,0.9931593537330627,
318162,-0.008241349831223488,0.0017411599401384592,1.007306456565857,
318172,0.008118445053696632,0.038211043924093246,1.01149320602417,
318182,-0.01808912493288517,0.013221271336078644,1.0074154138565063,
318192,-0.0034874591510742903,0.002482043346390128,1.015120506286621,
318202,0.0010637935483828187,0.009631968103349209,1.0181307792663574,
318212,0.002075423253700137,-0.005445284768939018,1.027075171470642,
318222,0.0025975829921662807,-0.01192463655024767,1.0139799118041992,
318232,-0.005564046557992697,0.028579024598002434,1.0266978740692139,
318242,0.012106448411941528,-0.006630970165133476,1.028372049331665,
318252,-0.033648230135440826,-0.02373550646007061,1.0436453819274902,
318262,-0.01454110722988844,0.017129339277744293,1.017303228378296,
318272,-0.012371821328997612,0.0004657624231185764,1.0223431587219238,
318282,-0.02775147370994091,0.005408480763435364,1.0372761487960815,
318292,0.001972450176253915,0.024506809189915657,1.0045218467712402,
318302,-0.022680653259158134,0.006767637562006712,1.03470778465271,
318312,0.0061191376298666,-0.004456760361790657,1.0137969255447388,
318322,-0.020680109038949013,-0.0002497856330592185,1.0209161043167114,
318332,-0.022179536521434784,-0.006359296850860119,1.0193980932235718,
318342,0.0010112905874848366,-0.009585581719875336,0.9872634410858154,
318352,-0.010661249980330467,0.00905329454690218,1.0168397426605225,
318362,0.009795158170163631,-0.0005093982326798141,0.9783369898796082,
318372,-0.013302715495228767,0.0011517296079546213,0.9803895354270935,
318382,-0.012301227077841759,0.010516032576560974,0.989298939704895,
318392,0.012005087919533253,0.02044658549129963,0.9789642095565796,
318402,-0.009612287394702435,-0.0016831995453685522,1.0072615146636963,
318412,0.0035613463260233402,0.03217829391360283,1.0000405311584473,
318422,0.013579895719885826,0.03566010668873787,1.018304705619812,
318432,0.0016621279064565897,-0.029056478291749954,1.0379215478897095,
318442,0.0074983807280659676,0.03428509831428528,1.0185822248458862,
318452,0.007761252112686634,-0.004530812613666058,1.0636876821517944,
318462,1.1812511729658581e-05,-0.023895543068647385,1.0597748756408691,
318472,0.0034259010571986437,0.04836811497807503,1.027914047241211,
318482,0.011402908712625504,0.0007146958378143609,1.0611581802368164,
318492,-0.02944713830947876,0.015155341476202011,1.0474483966827393,
318502,0.007944262586534023,-0.0040370868518948555,1.0316181182861328,
318512,-0.009374421089887619,0.008657906204462051,1.0309892892837524,
318522,-0.004274895880371332,-0.0017911180621013045,1.0243158340454102,
318532,0.0033865002915263176,0.02716921828687191,0.9956328868865967,
318542,-5.903041164856404e-05,0.003893238725140691,1.0122606754302979,
318552,0.002760020550340414,-0.016739830374717712,1.02693772315979,
318562,0.0034119111951440573,0.03421036899089813,1.0053988695144653,
318572,0.013827533461153507,-0.003462339984253049,0.9762501120567322,
318582,-0.0016627181321382523,-0.0006957423174753785,0.9787372946739197,
318592,0.0019423783523961902,0.025698222219944,0.995611310005188,
318602,0.011842473410069942,0.014709988608956337,0.9541346430778503,
318612,0.003735525533556938,0.01833261363208294,0.9934856295585632,
318622,0.010236555710434914,0.03498511761426926,0.9788342118263245,
318632,-0.020917683839797974,-0.0005196561687625945,1.014167070388794,
318642,-0.0037623890675604343,0.002823519753292203,1.0062068700790405,
318652,0.017444778233766556,0.0663723349571228,1.002367377281189,
318662,-0.010594016872346401,-0.008858481422066689,1.0198947191238403,
318672,0.0017790866550058126,0.053926218301057816,0.9901262521743774,
318682,-0.019749857485294342,0.020646505057811737,0.9949710369110107,
318692,-0.014319512993097305,-0.015823746100068092,0.9936461448669434,
318702,0.0066863736137747765,0.06847267597913742,0.9693513512611389,
318712,-0.0026877482887357473,0.030161818489432335,0.9408319592475891,
318722,0.006102060899138451,0.06915822625160217,0.9546721577644348,
318732,0.03785931318998337,0.059008028358221054,0.9346221685409546,
318742,-0.006930463947355747,0.005943103693425655,0.9662001132965088,
318752,0.008414573036134243,0.04951613396406174,0.9776581525802612,
318762,0.019527161493897438,0.03524140268564224,0.9732243418693542,
318772,-0.015275392681360245,-0.021498266607522964,1.012199878692627,
318782,-0.002245620358735323,0.021308153867721558,0.9703159928321838,
318792,-0.011609475128352642,0.001502710278145969,1.020682454109192,
318802,-0.00666801817715168,-0.022625327110290527,1.030364990234375,
318812,-0.0019060270860791206,0.023176833987236023,0.9665051698684692,
318822,-0.006285491399466991,-0.007626562844961882,1.009945273399353,
318832,-0.012017440982162952,-0.0030861874110996723,1.045348048210144,
318842,-0.019390739500522614,-0.02610926702618599,1.0401989221572876,
318852,-0.016819188371300697,-0.014669349417090416,1.0423853397369385,
318862,0.0002635405689943582,0.019894110038876534,1.0085240602493286,
318872,0.01081027090549469,0.029472045600414276,1.0034600496292114,
318882,-0.022252751514315605,0.008496257476508617,1.024983286857605,
318892,0.007748688571155071,0.01796085014939308,0.9975997805595398,
318902,-0.0009256293415091932,0.00804636999964714,1.0520356893539429,
318912,-0.0122955571860075,0.018751343712210655,1.0449953079223633,
318922,0.004923164378851652,-0.002868588315322995,1.0335150957107544,
318932,-0.021673450246453285,0.03941833972930908,1.0581531524658203,
318942,0.000681382545735687,0.04468128830194473,1.0137546062469482,
318952,-0.006788363680243492,0.03229394927620888,1.0290266275405884,
318962,0.005244411062449217,0.017253892496228218,1.0125840902328491,
318972,-0.007790007162839174,-0.023935209959745407,1.0023152828216553,
318982,-0.011844754219055176,0.00766164343804121,1.021672248840332,
318992,0.019411524757742882,0.02669144794344902,0.9657749533653259,
319002,-0.0017269181553274393,-0.008977279998362064,0.9652445316314697,
319012,-0.0003260121447965503,0.01293114759027958,1.0294522047042847,
319022,-0.0003839599958155304,0.0005222785985097289,0.9829238653182983,
319032,-0.006176344584673643,0.00022736418759450316,0.9999375939369202,
319042,0.00953908171504736,0.06491712480783463,0.986315131187439,
319052,0.0010287780314683914,0.0161454938352108,0.9687350988388062,
319062,0.0022227554582059383,0.032802190631628036,1.0010619163513184,
319072,-0.0006551598198711872,0.04970518872141838,0.9790289998054504,
319082,-0.003068873891606927,0.022641712799668312,0.978107750415802,
319092,-0.013640958815813065,0.05471261590719223,1.0035545825958252,
319102,-0.01232923474162817,0.03172272816300392,0.9814475774765015,
319112,-0.014282847754657269,-0.012241050601005554,1.01953125,
319122,-0.021724609658122063,0.03549884259700775,1.0368069410324097,
319132,-0.01496839802712202,0.013721069321036339,1.0125699043273926,
319142,-0.006204667966812849,0.013063536025583744,1.0046343803405762,
319152,-0.023142922669649124,0.008391903713345528,1.0064489841461182,
319162,-0.015193126164376736,-0.014394594356417656,1.0011886358261108,
319172,-0.0038793757557868958,0.02645130641758442,0.9720959067344666,
319182,0.006422457750886679,0.004318849183619022,0.9857766032218933,
319192,-0.005696743261069059,0.0004149206797592342,0.9731677174568176,
319202,0.0030830935575067997,0.01278627384454012,0.960089385509491,
319212,-0.00019145775877404958,-0.013491502963006496,0.9471942782402039,
319222,0.00801394134759903,0.04993113502860069,0.9724704027175903,
319232,-0.010562059469521046,0.02999652735888958,0.9813170433044434,
319242,-0.008942382410168648,0.01826300099492073,0.9792134761810303,
319252,-0.008675925433635712,0.06261718273162842,0.9964116215705872,
319262,-0.01847214438021183,0.0010209012543782592,0.9916113018989563,
319272,-0.016741672530770302,0.03648051619529724,1.0297671556472778,
319282,-0.004397776909172535,0.027554789558053017,1.0159105062484741,
319292,-0.020836664363741875,-0.04390714690089226,1.039152979850769,
319302,-0.019485197961330414,0.049530357122421265,1.0404762029647827,
319312,0.012619356624782085,-0.008493205532431602,0.9921921491622925,
319322,-0.02338358946144581,0.012828728184103966,1.0081803798675537,
319332,0.004056109581142664,0.00950736552476883,0.9709896445274353,
319342,-0.010133990086615086,-0.00855986401438713,0.9931640028953552,
319352,-0.01944294013082981,0.020007235929369926,1.0394554138183594,
319362,-0.01531694084405899,0.01113313902169466,1.0406980514526367,
319372,-0.037612952291965485,-0.01549554243683815,1.0355769395828247,
319382,-0.003176097758114338,0.03788904845714569,1.0640954971313477,
319392,-0.02711774781346321,-0.01865791529417038,1.080736756324768,
319402,-0.014954649843275547,0.04548531025648117,1.0462839603424072,
319412,-0.0008747393148951232,0.0008450873428955674,1.0948480367660522,
319422,-0.03532828390598297,-0.0046371277421712875,1.0349982976913452,
319432,0.00787691492587328,0.045030124485492706,1.0447026491165161,
319442,0.008493701927363873,-0.026999711990356445,1.0612144470214844,
319452,0.0083235464990139,0.06731109321117401,1.005905032157898,
319462,0.03312040865421295,0.027521919459104538,1.0246317386627197,
319472,-0.003438464365899563,0.016377348452806473,0.9826876521110535,
319482,-0.004000685177743435,-0.0054441289976239204,0.9655071496963501,
319492,0.01088572945445776,0.02751871570944786,0.9772841334342957,
319502,0.004271417856216431,-0.014160587452352047,0.9850131273269653,
319512,-0.011338843032717705,0.04076728969812393,0.9669422507286072,
319522,-0.014652338810265064,-0.031415972858667374,1.0523943901062012,
319532,0.019628604874014854,0.0622725673019886,1.0018103122711182,
319542,-0.000925057684071362,0.003168713068589568,1.0044772624969482,
319552,-0.017933189868927002,-0.043081484735012054,1.0351910591125488,
319562,-0.0013315737014636397,0.03257567435503006,0.9537588953971863,
319572,-0.012500080280005932,-0.02143087424337864,0.9062325358390808,
319582,-0.014665541239082813,0.05166671797633171,0.9086412787437439,
319592,-0.0010790687520056963,-0.0018094859551638365,0.9744585156440735,
319602,-0.012780229561030865,0.03378332406282425,0.9866679906845093,
319612,-0.0010194435017183423,0.018374083563685417,1.025638222694397,
319622,-0.015147817321121693,0.01813660003244877,0.9828599691390991,
319632,-0.004490035120397806,0.02336851879954338,0.9606964588165283,
319642,-0.02429092861711979,0.029748626053333282,0.9423883557319641,
319652,0.008290305733680725,0.015237914398312569,0.9447888731956482,
319662,0.0050218007527291775,0.013751913793385029,0.9434860348701477,
319672,0.004152607638388872,-0.0006895861588418484,0.9981418251991272,
319682,-0.004945934284478426,0.012227453291416168,0.9989837408065796,
319692,-0.011421401053667068,-0.005207609850913286,1.004701852798462,
319702,-0.028091201558709145,-0.012842471711337566,0.9979488253593445,
319712,-0.023082995787262917,0.017736930400133133,0.9879273176193237,
319722,0.004876778461039066,0.023746784776449203,0.952011227607727,
319732,-0.0040711695328354836,0.0036246879026293755,0.9755262732505798,
319742,0.0011906041763722897,0.02030196227133274,0.9641727805137634,
319752,0.012759546749293804,0.044157665222883224,0.9868674278259277,
319762,0.0043883658945560455,-0.012285004369914532,1.0567240715026855,
319772,0.0008526284364052117,0.009128347039222717,1.0191751718521118,
319782,-0.007411596365272999,0.018409186974167824,1.0285345315933228,
319792,-0.018612438812851906,-0.02236192859709263,1.0597997903823853,
319802,-0.015346639789640903,0.045848097652196884,1.0117074251174927,
319812,-0.039802391082048416,-0.017598561942577362,0.9919112324714661,
319822,-0.022376254200935364,0.046884775161743164,1.0003700256347656,
319832,-0.00699097802862525,0.014167433604598045,0.9810158014297485,
319842,-0.027664190158247948,-0.01836879923939705,1.0371273756027222,
319852,-0.009469668380916119,-0.015407262369990349,1.034371256828308,
319862,-0.005101033020764589,0.019840814173221588,0.9851023554801941,
319872,-0.010997636243700981,-0.009583884850144386,1.0137882232666016,
319882,-0.00975881703197956,0.019408034160733223,0.9980745315551758,
319892,0.0005485172150656581,0.01913599856197834,0.9397163391113281,
319902,-0.0033569640945643187,-0.004533931612968445,0.9375594854354858,
319912,0.009040839970111847,0.09541341662406921,0.9716852903366089,
319922,-0.007931796833872795,0.01761314645409584,0.9746396541595459,
319932,-0.0134932491928339,0.06655292958021164,0.9552568197250366,
319942,0.042944736778736115,0.017605483531951904,1.003217339515686,
319952,0.00011032020847778767,0.020254431292414665,0.9860530495643616,
319962,0.027974339202046394,0.04459525644779205,1.000112771987915,
319972,0.01656031608581543,-0.003317951923236251,1.0283774137496948,
319982,-0.013584802858531475,0.0321548730134964,0.9859607815742493,
319992,-0.006151048932224512,0.0015138305025175214,0.9704748392105103,
320002,0.0014864701079204679,0.013767202384769917,0.9868735074996948,
320012,-0.004782053176313639,0.0062942057847976685,0.9712031483650208,
320022,-0.005313132889568806,0.01547274924814701,0.9995144009590149,
320032,-0.0009668171987868845,-0.020083464682102203,1.0469611883163452,
320042,0.004008303862065077,0.08103765547275543,0.9905545711517334,
320052,0.012708586640655994,-0.016038527712225914,1.0354220867156982,
320062,0.015245205722749233,0.02325264923274517,0.9848407506942749,
320072,0.018993457779288292,0.0667182207107544,0.9949931502342224,
320082,0.011994282715022564,-0.0019037751480937004,1.0052125453948975,
320092,-0.02035660110414028,0.04420667886734009,0.9762811660766602,
320102,0.001207007560878992,0.028202736750245094,0.990536093711853,
320112,-0.002260936889797449,0.0033012421336025,0.994201123714447,
320122,-0.015020565129816532,-0.007908370345830917,1.0406407117843628,
320132,-0.013871458359062672,-0.007862326689064503,1.0638374090194702,
320142,-0.0018595681758597493,0.0019261270062997937,1.0276679992675781,
320152,0.00021035927056800574,-0.007989256642758846,1.044569730758667,
320162,0.00045853288611397147,0.058248370885849,1.0174980163574219,
320172,0.01982777751982212,-0.0008993996307253838,1.0393341779708862,
320182,0.004477072972804308,0.04017430916428566,1.0094650983810425,
320192,0.020125560462474823,0.044583357870578766,1.0083177089691162,
320202,0.016929537057876587,-0.04323685169219971,0.9991741180419922,
320212,-0.008519208990037441,0.02996029518544674,0.9862409234046936,
320222,0.005375154782086611,0.002274278551340103,0.9829705357551575,
320232,-0.014794720336794853,0.012119341641664505,1.000929832458496,
320242,-0.002152232686057687,0.015751028433442116,1.0314151048660278,
320252,-0.0039008345920592546,-0.012190989218652248,1.0012108087539673,
320262,-0.004827429074794054,0.029261015355587006,1.0523014068603516,
320272,-0.0017065367428585887,-0.013270776718854904,1.1139296293258667,
320282,0.0021201595664024353,0.04053804278373718,1.0352401733398438,
320292,0.009223469533026218,0.01404119934886694,1.063833475112915,
320302,-0.006857715547084808,0.03351472318172455,1.039434552192688,
320312,0.004217959009110928,0.010822774842381477,0.9998990297317505,
320322,-0.032057978212833405,-0.03266433998942375,1.0148593187332153,
320332,-0.007512751966714859,0.05742381513118744,0.965144693851471,
320342,0.005204486194998026,-0.015391898341476917,0.9825007915496826,
320352,-0.020678425207734108,-0.02751186490058899,0.9941195845603943,
320362,0.006355945486575365,0.04487967491149902,0.9643757343292236,
320372,-0.0048298281617462635,0.017345016822218895,0.9778658747673035,
320382,-0.03573746234178543,-0.032360099256038666,0.9844542741775513,
320392,-0.03541189059615135,0.013691571541130543,0.9790188670158386,
320402,-0.007100445218384266,0.0026960880495607853,0.9353110790252686,
320412,0.006332204677164555,0.06305880099534988,0.9726960062980652,
320422,0.027941633015871048,0.031128091737627983,0.994678258895874,
320432,-0.0017815481405705214,0.030467810109257698,0.9692534804344177,
320442,0.013780509121716022,-0.02840837836265564,0.9639448523521423,
320452,-0.022373870015144348,-0.02757623977959156,0.9997514486312866,
320462,-0.003744421061128378,-0.0030481701251119375,0.9861116409301758,
320472,-0.0012516930000856519,0.02076016739010811,0.9878942966461182,
320482,0.0003916739660780877,-0.021507306024432182,1.0425060987472534,
320492,-0.002447178354486823,-0.008247213438153267,1.0095597505569458,
320502,-0.011984475888311863,0.023014023900032043,0.9939351677894592,
320512,-0.025846341624855995,-0.011357142589986324,1.0353829860687256,
320522,-0.02360469475388527,0.03345946595072746,0.9980143308639526,
320532,-0.01262611523270607,-0.018175426870584488,0.9705957174301147,
320542,-0.004339391831308603,0.0026207321789115667,1.0116045475006104,
320552,-0.002848542993888259,0.0343441516160965,0.987970769405365,
320562,-0.023729704320430756,-0.016622288152575493,1.000177264213562,
320572,-0.010150191374123096,-0.04732969403266907,1.0272645950317383,
320582,0.006762009579688311,0.06175553798675537,0.9908463358879089,
320592,-0.011522642336785793,-0.005641220137476921,0.9996582269668579,
320602,-0.005613395012915134,-0.0031577609479427338,1.0153565406799316,
320612,0.005860567092895508,0.0024564468767493963,1.0088880062103271,
320622,0.007159304339438677,0.03513205423951149,0.9743911027908325,
320632,-0.009027590043842793,-0.013055074959993362,1.0193530321121216,
320642,-0.0021997480653226376,-0.012303142808377743,0.9995535612106323,
320652,0.002499551046639681,0.03487089276313782,0.9528731107711792,
320662,0.014329420402646065,0.008373083546757698,0.9730995297431946,
320672,-0.0016178716905415058,0.018855195492506027,0.9905110597610474,
320682,0.004058284685015678,0.0032065894920378923,0.9718128442764282,
320692,-0.024911673739552498,0.022488918155431747,0.979302167892456,
320702,-0.013027526438236237,0.04663951322436333,1.0028420686721802,
320712,-0.023528359830379486,-0.016129301860928535,0.9881587624549866,
320722,-0.013382632285356522,0.012335299514234066,1.0112636089324951,
320732,0.008009100332856178,-0.012413263320922852,1.0086333751678467,
320742,-0.006798720918595791,-0.006605604197829962,1.0175304412841797,
320752,-0.007768873590976,-0.009245184250175953,1.0041285753250122,
320762,0.007313333451747894,0.041273895651102066,0.986742377281189,
320772,-0.0017707506194710732,0.028299149125814438,0.9858660101890564,
320782,0.000766426557675004,0.016085494309663773,0.9693175554275513,
320792,-0.020489567890763283,0.040466323494911194,1.0246126651763916,
320802,-0.00220888527110219,-0.0012845667079091072,1.044674277305603,
320812,-0.01267685741186142,0.044097378849983215,0.9732402563095093,
320822,-0.0050353845581412315,-0.00714534567669034,1.0036340951919556,
320832,0.004378326237201691,-0.01838538981974125,1.0348069667816162,
320842,-0.003961223643273115,0.042259637266397476,1.0263668298721313,
320852,-0.011087524704635143,-0.043255262076854706,1.0613954067230225,
320862,0.025804225355386734,0.07658004015684128,1.0047868490219116,
320872,0.04190713167190552,0.07950036227703094,1.0092778205871582,
320882,0.02320091426372528,-0.02583932690322399,1.0453730821609497,
320892,0.002213115803897381,0.009584831073880196,1.0290459394454956,
