time,acc.x,acc.y,acc.z,
159156,0.008564647287130356,0.028923438861966133,0.9719678163528442,
159166,-0.009735682047903538,0.038866300135850906,0.9755092859268188,
159176,0.005856762640178204,0.050993263721466064,0.9822510480880737,
159186,0.011972027830779552,0.009049992077052593,0.9434570074081421,
159196,0.019369227811694145,-0.02182273007929325,0.9880720973014832,
159206,0.02110903710126877,0.030321810394525528,0.9795699119567871,
159216,-0.013198945671319962,-0.008253377862274647,0.9787432551383972,
159226,-0.018241263926029205,0.012439318932592869,1.0028847455978394,
159236,0.00969724915921688,0.014900488778948784,1.0032130479812622,
159246,-0.005436533596366644,0.01853271573781967,0.9353926777839661,
159256,0.0008111218339763582,0.03213870897889137,0.9842231273651123,
159266,0.018732044845819473,0.04207485541701317,0.9616619348526001,
159276,0.017218993976712227,-0.03698846325278282,0.9898636341094971,
159286,0.010513472370803356,0.015928693115711212,0.9805550575256348,
159296,0.03508906438946724,0.027060823515057564,0.9462230205535889,
159306,0.007943745702505112,0.001220196601934731,1.0063272714614868,
159316,-0.03875415027141571,0.019952816888689995,1.02859365940094,
159326,-0.012591687962412834,0.04905295744538307,0.957176923751831,
159336,0.02144155278801918,0.07167196273803711,0.9670342206954956,
159346,0.024179168045520782,-0.011028783395886421,1.0167624950408936,
159356,-0.01269610971212387,0.003413644153624773,0.9910889863967896,
159366,0.02104887366294861,0.01655529998242855,0.9862687587738037,
159376,0.009008508175611496,0.058847930282354355,0.9736981987953186,
159386,0.0073304371908307076,-0.0014697826700285077,0.9918739795684814,
159396,-0.014238563366234303,-0.003552159294486046,1.0247256755828857,
159406,-0.0015658288029953837,-0.004858226981014013,0.9795625805854797,
159416,-0.009205728769302368,0.014543886296451092,0.992866039276123,
159426,0.026311244815587997,0.05077892169356346,0.9844391345977783,
159436,-0.022105857729911804,-0.007129316683858633,1.0390377044677734,
159446,0.005057916045188904,-0.007655433379113674,0.980606198310852,
159456,0.013501008041203022,0.02997666969895363,0.9755710959434509,
159466,0.010466795414686203,-0.024190329015254974,1.0093343257904053,
159476,-0.031615257263183594,0.04544549807906151,1.0184491872787476,
159486,0.005221304949373007,0.027238620445132256,0.9887585639953613,
159496,-0.006692234892398119,0.028045497834682465,0.9777758121490479,
159506,0.029114216566085815,0.03201888129115105,0.9804407358169556,
159516,-0.009051251225173473,0.00948075857013464,1.0197093486785889,
159526,0.0036198769230395555,-0.006580896209925413,0.9896776080131531,
159536,-0.0025657929945737123,-0.0018554956186562777,1.0031100511550903,
159546,0.018785223364830017,-0.0068357717245817184,1.025310754776001,
159556,0.024381570518016815,0.05188877508044243,0.9895593523979187,
159566,-0.0038435934111475945,-0.0073545859195292,0.9938277006149292,
159576,-0.0051032728515565395,0.0180496945977211,1.0139738321304321,
159586,0.013318675570189953,0.02668340690433979,0.9946358799934387,
159596,-0.0073762391693890095,0.018929192796349525,0.9821062088012695,
159606,-0.0070250011049211025,0.04063188284635544,1.0123260021209717,
159616,0.003594394773244858,0.016899652779102325,0.9682610630989075,
159626,-0.0017477271612733603,-0.027768926694989204,0.9861236810684204,
159636,0.01037717703729868,0.02144847996532917,0.989148736000061,
159646,-0.006159547250717878,0.05059443414211273,0.9997245073318481,
159656,0.004775116685777903,0.07573262602090836,0.9401218891143799,
159666,0.020277753472328186,0.04724349081516266,1.0108904838562012,
159676,-0.020715009421110153,-0.00010494719754206017,1.012540340423584,
159686,0.007384386379271746,0.043003566563129425,0.9682564735412598,
159696,0.0023517245426774025,0.01810813695192337,0.9842917919158936,
159706,-0.03373017907142639,0.046573884785175323,0.9933216571807861,
159716,-0.015433913096785545,-0.00132698193192482,0.9927942156791687,
159726,-0.02381731942296028,-0.011387922801077366,1.005129098892212,
159736,-0.006123943254351616,0.004614972975105047,0.9836804270744324,
159746,-0.012832553125917912,0.008415905758738518,0.9966723322868347,
159756,-0.02956467866897583,0.014468420296907425,1.0063062906265259,
159766,0.007738816551864147,0.017602911219000816,0.975211501121521,
159776,-0.0028773085214197636,0.040536604821681976,0.9946619868278503,
159786,0.001811605878174305,0.016603823751211166,1.0166542530059814,
159796,-0.022252054885029793,-0.04572860151529312,1.0285967588424683,
159806,0.0034698944073170424,0.08780078589916229,0.981698751449585,
159816,0.01475527510046959,0.059562474489212036,0.9845255613327026,
159826,-0.009277365170419216,0.039304789155721664,1.0348732471466064,
159836,-0.010164585895836353,0.017879392951726913,1.011018991470337,
159846,-0.020201073959469795,0.07683312892913818,0.9796343445777893,
159856,0.03176313638687134,0.0398307740688324,0.9720685482025146,
159866,-0.04312051087617874,0.0026521789841353893,1.0442118644714355,
159876,-0.008801582269370556,-0.007088494952768087,1.0455570220947266,
159886,-0.012109738774597645,0.00784758385270834,0.9988937377929688,
159896,0.0010744085302576423,-0.03578603267669678,0.9948111772537231,
159906,-0.028742516413331032,0.011617753654718399,1.0332075357437134,
159916,-0.02371828630566597,0.017326610162854195,1.0280258655548096,
159926,-0.02159976027905941,0.07411929219961166,1.0143924951553345,
159936,-0.03868163749575615,0.038118407130241394,1.020700216293335,
159946,-0.02200806885957718,0.05653708800673485,0.9891688227653503,
159956,0.0018467539921402931,0.01707686297595501,1.0142101049423218,
159966,-0.009767466224730015,0.0724002942442894,0.9912951588630676,
159976,-0.011577735655009747,0.04469997063279152,0.9941584467887878,
159986,-0.04671267047524452,0.0018980007153004408,1.0093556642532349,
159996,0.011785857379436493,-0.006303318776190281,0.9622474312782288,
160006,-0.015615131705999374,-0.0038016997277736664,1.0086820125579834,
160016,-0.01681104302406311,-0.02560335397720337,1.016794204711914,
160026,-0.028735579922795296,0.03496653959155083,1.0142797231674194,
160036,-0.030155576765537262,0.052422184497117996,0.9914645552635193,
160046,-0.01020020805299282,0.09424015879631042,0.9824355840682983,
160056,-0.01511118933558464,0.02531253732740879,1.0274649858474731,
160066,-0.04598104581236839,0.0525243915617466,1.0088655948638916,
160076,-0.02497253566980362,0.07687553018331528,1.0023155212402344,
160086,-0.04950084909796715,-0.00026526913279667497,1.0218144655227661,
160096,-0.006394709926098585,0.015561467036604881,0.9859633445739746,
160106,0.007584249600768089,0.02947266586124897,0.9483986496925354,
160116,-0.01413843221962452,-0.02498619444668293,1.013687252998352,
160126,-0.03331141546368599,0.05825361609458923,0.9977506995201111,
160136,0.00948942732065916,-0.007608545478433371,0.9587109684944153,
160146,-0.011937293224036694,0.0017353391740471125,0.9968424439430237,
160156,-0.013881601393222809,-0.0013040732592344284,1.0014028549194336,
160166,-0.032969459891319275,0.027030324563384056,1.0139521360397339,
160176,-0.0026019487995654345,0.03522287681698799,1.0210926532745361,
160186,-0.019143270328640938,0.05278366431593895,0.9834392070770264,
160196,-0.013872452080249786,0.02396787703037262,1.0453933477401733,
160206,-0.04439914971590042,0.047472596168518066,0.9776650071144104,
160216,0.004750354681164026,0.06637025624513626,0.987028181552887,
160226,-0.02237122319638729,0.019040195271372795,0.9937353134155273,
160236,-0.008237006142735481,0.05124816298484802,0.9784200191497803,
160246,-0.012989142909646034,0.015829652547836304,0.9799168109893799,
160256,-0.011925685219466686,0.02284812554717064,0.9771507382392883,
160266,-0.016147417947649956,0.04566109552979469,1.001253366470337,
160276,-0.026275569573044777,0.009372361935675144,1.0292445421218872,
160286,-0.015425064601004124,0.028727775439620018,1.0049313306808472,
160296,-0.028241179883480072,0.008942406624555588,1.01692533493042,
160306,-0.00048475421499460936,0.008321124128997326,0.9982105493545532,
160316,-0.01251739077270031,0.0338372066617012,0.9977296590805054,
160326,-0.025024455040693283,-0.008942159824073315,1.0266555547714233,
160336,-0.016278650611639023,0.05505815148353577,0.9973074197769165,
160346,-0.010944022797048092,0.022263603284955025,1.0067816972732544,
160356,-0.02999306656420231,0.01620357856154442,0.9979760646820068,
160366,0.015128841623663902,0.06213877350091934,0.9607264995574951,
160376,-0.008120645768940449,0.010536284185945988,0.9954255223274231,
160386,-0.0030095656402409077,0.007571440190076828,0.9879642128944397,
160396,-0.011375871486961842,-0.01595553196966648,0.9790223836898804,
160406,0.011198426596820354,-0.025811638683080673,0.9928818941116333,
160416,0.00046289514284580946,0.01552629005163908,0.9796447157859802,
160426,-0.031147435307502747,-0.02761715278029442,0.9799789786338806,
160436,-0.013472190126776695,0.08475633710622787,0.9948525428771973,
160446,0.007251582574099302,0.008515728637576103,1.0240200757980347,
160456,-0.01324124913662672,0.00029948735027574003,1.008682131767273,
160466,-0.0003762349078897387,0.0042030890472233295,0.9703060388565063,
160476,-0.015506314113736153,0.020912569016218185,0.9659421443939209,
160486,-0.02090335078537464,0.010418749414384365,0.9935594201087952,
160496,-0.014736086130142212,0.01945284754037857,0.9772237539291382,
160506,-0.0003392797370906919,0.019656134769320488,0.9410843849182129,
160516,-0.0077437059953808784,-0.016064001247286797,1.0098663568496704,
160526,-0.04296266660094261,0.013410065323114395,0.9934723973274231,
160536,-0.01521679200232029,-0.03259015455842018,1.004245638847351,
160546,-0.005268546752631664,0.06883762776851654,1.000260591506958,
160556,-0.010532628744840622,0.0008711685077287257,1.020159125328064,
160566,-0.03949864208698273,0.015611174516379833,1.043731451034546,
160576,-0.010218888521194458,-0.00874947290867567,1.0024091005325317,
160586,-0.013944189064204693,0.0038052259478718042,1.0031028985977173,
160596,-0.010479259304702282,0.016429610550403595,1.0092936754226685,
160606,-0.02292507141828537,0.03627496585249901,1.0103280544281006,
160616,-0.03551148995757103,0.026666607707738876,1.02295982837677,
160626,-0.020206188783049583,0.05917860195040703,0.9832364916801453,
160636,0.0007632271153852344,-0.013629209250211716,1.0072941780090332,
160646,-0.03376470133662224,0.03278703987598419,1.005954623222351,
160656,-0.022031309083104134,-0.004075061529874802,1.008817195892334,
160666,-0.05526236072182655,0.0123435752466321,1.0428520441055298,
160676,-0.029364127665758133,-0.0069583808071911335,1.0163017511367798,
160686,-0.006254145875573158,-0.004145863465964794,0.991689145565033,
160696,0.002212428255006671,0.00019580492516979575,0.9949179291725159,
160706,-0.022652942687273026,0.06222787871956825,1.008634090423584,
160716,-0.02482183277606964,0.009467820636928082,1.0458707809448242,
160726,-0.04128500074148178,0.05262620002031326,0.9967912435531616,
160736,-0.030790191143751144,0.02441519871354103,1.0025694370269775,
160746,-0.05333637446165085,-0.00044670316856354475,1.0258853435516357,
160756,-0.013763529248535633,0.04261777549982071,1.009145736694336,
160766,-0.011125156655907631,0.008243216201663017,0.9701922535896301,
160776,-0.025824030861258507,-0.02199455350637436,1.0011446475982666,
160786,-0.010200448334217072,-0.02237134985625744,1.0271729230880737,
160796,0.00387931102886796,0.05459745600819588,0.9873306751251221,
160806,0.014322197064757347,0.06295392662286758,0.9708734154701233,
160816,-0.015305288136005402,0.024916453287005424,0.9870757460594177,
160826,-0.027254901826381683,0.1025710329413414,0.9967254996299744,
160836,-0.010672889649868011,0.04842381924390793,0.9847139120101929,
160846,-0.02558111399412155,-0.011781943961977959,0.9802536964416504,
160856,-0.02076699584722519,-0.015100391581654549,1.0331084728240967,
160866,-0.0060158222913742065,0.03760148957371712,1.031243085861206,
160876,0.0005764690577052534,0.025623640045523643,0.9829941391944885,
160886,-0.026360487565398216,0.006166753824800253,0.9950965642929077,
160896,0.010729932226240635,0.07803481817245483,0.9681665897369385,
160906,0.04229878634214401,0.002503342926502228,0.9545438885688782,
160916,-0.007137726526707411,0.00617608055472374,1.019288420677185,
160926,0.0031083254143595695,0.022906940430402756,1.014478087425232,
160936,-0.02068108506500721,0.06952997297048569,0.9947254657745361,
160946,0.007958759553730488,0.046412184834480286,1.0129108428955078,
160956,0.006291795521974564,0.010564133524894714,1.0090943574905396,
160966,-0.025049762800335884,-0.017515428364276886,1.0070765018463135,
160976,-0.009118122979998589,0.003812933573499322,0.9967791438102722,
160986,-0.03450847044587135,0.02768600359559059,0.9857840538024902,
160996,-0.018559977412223816,0.020033370703458786,1.0221943855285645,
161006,-0.005326637998223305,0.0803179144859314,0.9867962598800659,
161016,-0.02188630774617195,0.038152728229761124,1.013348937034607,
161026,-0.02168865129351616,0.05551777780056,1.0002000331878662,
161036,0.020403891801834106,0.00683645810931921,0.9903384447097778,
161046,-0.00794842466711998,0.008991972543299198,1.0118236541748047,
161056,-0.0169503353536129,0.0168714988976717,0.9859312772750854,
161066,-0.023266902193427086,-0.005411484278738499,1.0244585275650024,
161076,-0.004350040573626757,0.02712901495397091,0.9828705787658691,
161086,0.011569730006158352,-0.016185704618692398,0.9965319037437439,
161096,-0.0427914559841156,0.004716767929494381,1.004169225692749,
161106,-0.01890832930803299,0.015538347885012627,1.0029646158218384,
161116,-0.035879962146282196,0.07462792843580246,1.0270297527313232,
161126,-0.01915603131055832,0.029536718502640724,0.9988987445831299,
161136,-0.005411849357187748,0.0807117372751236,0.9736266136169434,
161146,-0.01448814570903778,0.04157359525561333,1.004844307899475,
161156,0.007578755728900433,0.011556866578757763,0.9900351762771606,
161166,-0.01596117578446865,-0.01238526962697506,1.0152777433395386,
161176,0.012741586193442345,-0.004442222416400909,0.9628691673278809,
161186,-0.0464015007019043,-0.024466706439852715,1.024351954460144,
161196,-0.015342078171670437,-0.021247122436761856,0.9867302775382996,
161206,0.004340093582868576,-0.0101461848244071,0.9894698262214661,
161216,-0.017763134092092514,-0.02010725438594818,1.002350926399231,
161226,0.0023341504856944084,0.07976222783327103,0.9721009731292725,
161236,-0.004294914659112692,0.026764297857880592,0.9706036448478699,
161246,-0.009698372334241867,0.0557747557759285,0.9790906310081482,
161256,-0.02572985738515854,0.022094665095210075,0.9719539284706116,
161266,-0.010030855424702168,0.005292534362524748,0.9979850649833679,
161276,-0.013468542136251926,0.014021061360836029,0.9658356308937073,
161286,-0.015080098062753677,-0.00372940581291914,0.9810017347335815,
161296,-0.019949397072196007,0.023116029798984528,0.9851711988449097,
161306,-0.011933483183383942,0.021096665412187576,0.9576565623283386,
161316,-0.02829679287970066,0.02862738072872162,1.018391489982605,
161326,-0.01966799423098564,0.031168218702077866,0.97526615858078,
161336,0.00043439961154945195,0.020846160128712654,0.9832460284233093,
161346,-0.02638094685971737,0.0126046072691679,1.0063847303390503,
161356,-0.018143892288208008,0.03436330333352089,0.9722883105278015,
161366,0.010285116732120514,-0.0013749697245657444,0.9711386561393738,
161376,-0.0034116841852664948,-0.013877185992896557,0.9739018082618713,
161386,-0.01456412486732006,-0.013472069054841995,0.9915631413459778,
161396,-0.009188341908156872,-0.031749170273542404,1.0222667455673218,
161406,-0.00894481036812067,0.02576938457787037,0.9870517253875732,
161416,-0.00763486186042428,-0.003037866670638323,1.0235939025878906,
161426,-0.03468157723546028,0.0346982441842556,1.0485936403274536,
161436,-0.012869090773165226,0.04512828215956688,1.0276225805282593,
161446,-0.04267226904630661,0.02265087701380253,1.0362879037857056,
161456,-0.0737764909863472,0.0035093496553599834,1.031150221824646,
161466,0.00018289999570697546,-0.00021710187138523906,1.0177363157272339,
161476,-0.03766072914004326,0.020120445638895035,1.0522958040237427,
161486,-0.023317115381360054,-0.020462214946746826,1.022836446762085,
161496,-0.005771700292825699,0.015280882827937603,0.9755764007568359,
161506,-0.010962591506540775,-0.014109529554843903,0.9768483638763428,
161516,-0.002843772293999791,0.025128595530986786,0.9862045645713806,
161526,0.05373959243297577,-0.006261598784476519,0.9857524633407593,
161536,-0.018690405413508415,0.010826543904840946,0.9882636666297913,
161546,-0.017595943063497543,0.05784832313656807,1.0156317949295044,
161556,-0.0199359692633152,0.12171898782253265,0.9667479991912842,
161566,0.025938870385289192,0.012258859351277351,0.9921263456344604,
161576,-0.015645675361156464,-0.001740342820994556,1.0073992013931274,
161586,-0.010113507509231567,0.020390918478369713,0.9734575152397156,
161596,-0.01625734753906727,0.03704206272959709,0.9833330512046814,
161606,-0.023239461705088615,0.024783598259091377,0.9725307822227478,
161616,-0.014479348435997963,0.013562619686126709,0.9684497714042664,
161626,-0.02056453377008438,0.020590396597981453,1.0043253898620605,
161636,-0.010558748617768288,0.008901611901819706,1.0030988454818726,
161646,-0.024285534396767616,0.005881925113499165,0.9831231236457825,
161656,0.005809038411825895,0.0459090955555439,1.0052356719970703,
161666,-0.021739838644862175,0.003718495834618807,1.0072524547576904,
161676,0.008315308950841427,0.020352913066744804,0.9905850291252136,
161686,-0.024954989552497864,0.044938910752534866,0.9716618061065674,
161696,-0.018778931349515915,0.01806470938026905,0.97886723279953,
161706,-0.02754558064043522,0.027664262801408768,0.969905436038971,
161716,-0.0019796506967395544,0.011253345757722855,0.975601077079773,
161726,-0.03315572813153267,-0.009902467019855976,1.0085890293121338,
161736,-0.016009563580155373,0.0060639153234660625,0.9932109713554382,
161746,-0.01836840808391571,0.013148879632353783,1.0031991004943848,
161756,-0.01472990121692419,0.010734017007052898,1.008408546447754,
161766,0.02370019629597664,0.1052497923374176,0.96430504322052,
161776,-0.004835984669625759,0.045183226466178894,0.9932430386543274,
161786,-0.010751567780971527,0.028566686436533928,0.9930357336997986,
161796,0.0036899300757795572,0.0002611168602015823,0.9911449551582336,
161806,-0.010011013597249985,0.019711265340447426,1.0178675651550293,
161816,-0.015623587183654308,0.0648752823472023,0.9668610095977783,
161826,0.011606946587562561,0.06844482570886612,1.0137892961502075,
161836,0.021850498393177986,0.028795888647437096,1.0130887031555176,
161846,-0.013487068004906178,-0.009828576818108559,1.0198217630386353,
161856,-0.0024975796695798635,-0.001449822448194027,0.9905650615692139,
161866,0.003778347047045827,0.02033831737935543,0.9891150593757629,
161876,-0.022969799116253853,0.014998290687799454,1.016577959060669,
161886,-0.0048829917795956135,0.023979347199201584,1.002130389213562,
161896,-0.018964407965540886,0.04469183832406998,1.0048481225967407,
161906,0.028142699971795082,0.018372945487499237,0.9856756925582886,
161916,0.0016784867038950324,-0.006934816483408213,1.0176150798797607,
161926,-0.0037874607369303703,-0.0012286711717024446,1.0535573959350586,
161936,-0.01664646528661251,0.014330696314573288,1.019981026649475,
161946,-0.0165204219520092,-0.0012585133081302047,1.0416980981826782,
161956,-0.00967454630881548,0.031744081526994705,1.0126248598098755,
161966,0.007379100192338228,0.016831105574965477,1.0099965333938599,
161976,-0.024523384869098663,0.01972542516887188,1.0138579607009888,
161986,-0.010616153478622437,0.031674448400735855,1.0093837976455688,
161996,0.011922773905098438,0.09789454936981201,0.9477986693382263,
162006,0.005689732730388641,0.031886398792266846,1.0289390087127686,
162016,-0.006074685137718916,0.006023698020726442,1.0182709693908691,
162026,-0.01010640524327755,-0.015096446499228477,0.9989905953407288,
162036,0.002352600684389472,-0.012870523147284985,0.9908445477485657,
162046,-0.03693562000989914,0.02264457568526268,0.9762232899665833,
162056,-0.002417660551145673,-0.016156096011400223,1.0008474588394165,
162066,-0.003928023856133223,0.09127998352050781,0.9979055523872375,
162076,-0.019860785454511642,0.030248446390032768,0.978233277797699,
162086,-0.003923960495740175,0.039246149361133575,0.9857141971588135,
162096,0.033268071711063385,0.049997277557849884,1.0006810426712036,
162106,0.008571118116378784,0.11642885953187943,0.9752297401428223,
162116,0.033652711659669876,0.04788937792181969,0.9893494248390198,
162126,-0.005346468649804592,0.00476414617151022,0.9584138989448547,
162136,0.02121436782181263,-0.024622397497296333,0.9667300581932068,
162146,0.004756046459078789,0.08867451548576355,0.9591091275215149,
162156,0.0037883396726101637,0.008730473928153515,0.9498981833457947,
162166,-0.029322488233447075,0.0308083463460207,0.9819899797439575,
162176,-0.006233574822545052,-0.0004770375380758196,0.9665167927742004,
162186,0.001048208330757916,-0.015922237187623978,0.9699255228042603,
162196,0.0007364227203652263,-0.012328088283538818,1.0195001363754272,
162206,0.0005365231190808117,0.021700508892536163,0.9977349638938904,
162216,-0.004399163648486137,0.04690580442547798,0.9926145076751709,
162226,0.033241208642721176,0.010518715716898441,0.9851416349411011,
162236,-0.013346306048333645,-0.012976571917533875,1.026450276374817,
162246,0.007082130294293165,-0.0021841449197381735,1.0010650157928467,
162256,0.008626023307442665,0.05525116249918938,0.9576371312141418,
162266,0.008352095261216164,0.10450872778892517,0.9981006383895874,
162276,-0.005460266023874283,0.007983582094311714,1.0582958459854126,
162286,-0.01620352827012539,-0.005182771477848291,1.0054141283035278,
162296,0.02885374240577221,-0.03392462804913521,1.0146270990371704,
162306,0.009836036711931229,0.0809999629855156,1.0174616575241089,
162316,0.02111656777560711,0.02112797647714615,1.0297688245773315,
162326,-0.0051859901286661625,-0.0028160943184047937,1.056191086769104,
162336,-0.012319277040660381,-0.015554411336779594,1.0467841625213623,
162346,-0.01496877707540989,0.016641393303871155,1.0062743425369263,
162356,-0.017386771738529205,-0.006332769989967346,1.0378798246383667,
162366,-0.01229865662753582,0.01636839658021927,1.0341664552688599,
162376,0.013290083967149258,-0.006109001114964485,1.0113557577133179,
162386,0.02213096059858799,0.03303647041320801,1.025529384613037,
162396,0.02532893978059292,0.049154315143823624,1.0410995483398438,
162406,-0.005625802557915449,0.012157024815678596,1.0502195358276367,
162416,-0.011166936717927456,0.06096727028489113,1.0636184215545654,
162426,-0.023851390928030014,-0.0016781981103122234,1.0555696487426758,
162436,-0.02150065079331398,0.024556832388043404,1.0029393434524536,
162446,0.01908770576119423,-0.007869746536016464,1.0039868354797363,
162456,0.00943795870989561,0.06749231368303299,1.010114312171936,
162466,0.004510434344410896,0.041189152747392654,1.0095762014389038,
162476,-0.008066149428486824,0.021859552711248398,1.0648415088653564,
162486,-0.003259617369621992,0.009545445442199707,1.0343316793441772,
162496,-0.04922100529074669,-0.007562932558357716,1.0249229669570923,
162506,-0.012649575248360634,0.03141126409173012,0.9984748363494873,
162516,0.012789704836905003,0.048767462372779846,0.9803747534751892,
162526,0.0005136364488862455,0.00415648240596056,1.0093337297439575,
162536,-0.027096157893538475,-0.016741221770644188,1.0159175395965576,
162546,-0.016496803611516953,0.030515333637595177,1.0190389156341553,
162556,0.01628660410642624,0.05661274492740631,0.9923840165138245,
162566,0.00669407332316041,0.021300628781318665,0.9911884069442749,
162576,-0.009684866294264793,-0.025313129648566246,1.0199540853500366,
162586,-0.012384680099785328,0.047691840678453445,1.0150243043899536,
162596,-0.022854989394545555,0.004026106093078852,1.0370397567749023,
162606,0.014888917095959187,0.07353951781988144,0.9665228724479675,
162616,0.01182115264236927,0.004450770560652018,1.0258238315582275,
162626,-0.028279833495616913,0.03208136931061745,1.0159634351730347,
162636,-0.010305679403245449,0.036904241889715195,0.9903515577316284,
162646,-0.009008849039673805,0.022463859990239143,0.9805976152420044,
162656,0.006719108205288649,0.0757635161280632,0.9670740365982056,
162666,-0.006154863629490137,0.06937343627214432,0.9940571188926697,
162676,-0.02105345018208027,0.04689647629857063,0.9880320429801941,
162686,0.013223542831838131,0.038679540157318115,1.003691554069519,
162696,-0.017980951815843582,0.010454857721924782,0.9854442477226257,
162706,0.008862708695232868,0.04535974562168121,0.9766238331794739,
162716,-0.002988961758092046,-0.010088655166327953,0.9862002730369568,
162726,-0.03319089114665985,0.042517222464084625,0.959519624710083,
162736,-0.008069238625466824,0.05266764387488365,0.9574276804924011,
162746,-0.025607969611883163,0.05194332078099251,0.978706955909729,
162756,-0.005368476267904043,0.07904596626758575,0.969570517539978,
162766,0.012103395536541939,0.038533974438905716,0.9918816089630127,
162776,-0.045842044055461884,0.01172668393701315,1.008948564529419,
162786,0.0018041807925328612,0.0400768481194973,0.9804902672767639,
162796,0.006981433369219303,0.04255564510822296,0.9582711458206177,
162806,-0.021225156262516975,-0.008111012168228626,0.9988034963607788,
162816,0.01165919192135334,0.04092227295041084,0.9804179668426514,
162826,0.010435697622597218,0.006387721747159958,0.9825630784034729,
162836,-0.009350696578621864,0.01848152093589306,0.9965986609458923,
162846,5.8730976888909936e-05,0.04222309589385986,0.976148247718811,
162856,-0.01602897420525551,0.04318618401885033,1.016226887702942,
162866,-0.011804455891251564,0.017384717240929604,1.0142830610275269,
162876,0.019141631200909615,0.031150726601481438,0.9762618541717529,
162886,-0.007963634096086025,-0.052429020404815674,1.0121378898620605,
162896,-0.006537225097417831,0.0665765181183815,0.990837574005127,
162906,0.026208730414509773,0.03608132153749466,0.9654923677444458,
162916,-0.028512293472886086,0.039514005184173584,1.0284843444824219,
162926,0.01212447788566351,0.022192643955349922,0.9917250275611877,
162936,0.009403733536601067,0.07559524476528168,0.9875777959823608,
162946,0.03485633060336113,0.043993886560201645,0.9909578561782837,
162956,-0.013704231008887291,-0.0013823434710502625,1.0173566341400146,
162966,0.0021287472918629646,-0.007182692177593708,0.9875162243843079,
162976,0.004370682407170534,0.013093972578644753,0.974516749382019,
162986,-0.01924036256968975,-0.022348463535308838,1.000408411026001,
162996,-0.01034450251609087,0.024428805336356163,1.0055413246154785,
163006,0.002966106403619051,0.04544886201620102,0.983141303062439,
163016,-0.029223507270216942,0.002530521946027875,1.0390318632125854,
163026,-0.004023211542516947,-0.002422442426905036,0.9912553429603577,
163036,0.0001708312047412619,-0.018720345571637154,0.9941163659095764,
163046,0.011560246348381042,0.020325778052210808,1.008212685585022,
163056,-0.013769084587693214,0.04739276319742203,1.031227469444275,
163066,-0.004671117756515741,0.03789328783750534,0.9844475984573364,
163076,0.015419413335621357,0.05559353530406952,1.0102994441986084,
163086,-0.04683385416865349,0.005606680642813444,1.031233787536621,
163096,-0.029609812423586845,0.06429360061883926,0.9844566583633423,
163106,0.009793924167752266,0.03716149553656578,0.965291440486908,
163116,-0.04644378647208214,0.03838355466723442,1.0255405902862549,
163126,0.004566298797726631,0.00714092655107379,0.9611174464225769,
163136,0.0017633659299463034,-0.007998104207217693,0.985785186290741,
163146,0.004907263908535242,-0.011771074496209621,0.9918074011802673,
163156,-0.005465656518936157,-0.016686229035258293,0.9877587556838989,
163166,-0.008406761102378368,0.004717878066003323,0.983184814453125,
163176,0.03448037430644035,-0.00915459357202053,0.9987519979476929,
163186,0.005831353832036257,-0.005180802661925554,1.0435583591461182,
163196,-0.019392503425478935,0.025573810562491417,1.0493168830871582,
163206,-0.030041849240660667,0.0094488225877285,1.0131027698516846,
163216,0.006730272900313139,0.0398760549724102,0.9889192581176758,
163226,0.05852409452199936,-0.022866899147629738,1.0037741661071777,
163236,0.005706089083105326,0.0165251474827528,1.0558407306671143,
163246,-0.009218156337738037,0.016010023653507233,1.0590084791183472,
163256,-0.044946957379579544,0.014489167369902134,1.0441094636917114,
163266,-0.022226637229323387,0.028605662286281586,1.0284327268600464,
163276,-0.01391877606511116,0.015672650188207626,1.0243009328842163,
163286,-0.0028041612822562456,0.0032066358253359795,1.0458998680114746,
163296,0.015942471101880074,-0.008696160279214382,1.0440776348114014,
163306,0.01633262075483799,0.019742637872695923,1.0413217544555664,
163316,0.001576442620716989,0.0019193758489564061,1.0248340368270874,
163326,-0.018617471680045128,0.048950545489788055,1.0210332870483398,
163336,0.005953860003501177,0.02341313846409321,1.032219409942627,
163346,-0.012849193997681141,0.05245301127433777,1.0469096899032593,
163356,-0.011770443990826607,0.017605029046535492,1.0663121938705444,
163366,-0.014742900617420673,0.009299048222601414,1.054996132850647,
163376,0.0017084036953747272,0.04553818702697754,1.0561425685882568,
163386,-0.010570676997303963,0.028754958882927895,1.0669944286346436,
163396,-0.026919476687908173,-0.0019690804183483124,1.1038410663604736,
163406,-0.041235581040382385,0.020656773820519447,1.100313425064087,
163416,-0.011358768679201603,-0.004863233771175146,1.0733013153076172,
163426,-0.019900480285286903,-0.015315006487071514,1.0900980234146118,
163436,0.003986021503806114,0.00576917827129364,1.0989660024642944,
163446,-0.009988644160330296,-0.015034647658467293,1.0941495895385742,
163456,-0.022880513221025467,0.023788847029209137,1.0736852884292603,
163466,-0.020028257742524147,0.0029904795810580254,1.1212736368179321,
163476,0.0158559400588274,-0.015152299776673317,1.1040765047073364,
163486,0.0034764546435326338,0.026521991938352585,1.0578182935714722,
163496,-0.003004081081598997,0.04739512875676155,1.0775315761566162,
163506,-0.009903659112751484,0.012533038854598999,1.1285966634750366,
163516,4.893051664112136e-05,0.04602586477994919,1.12835693359375,
163526,0.02530479058623314,0.03856759890913963,1.1023398637771606,
163536,0.010635140351951122,-0.0017181377625092864,1.0969593524932861,
163546,5.885959035367705e-05,-0.00961454026401043,1.1173442602157593,
163556,-0.011212185956537724,0.06750533729791641,1.0986977815628052,
163566,-0.005472876597195864,0.03224942460656166,1.1107525825500488,
163576,-0.030705466866493225,0.0062948488630354404,1.1121877431869507,
163586,-0.01820838451385498,-0.000662783277221024,1.1251343488693237,
163596,0.02538861334323883,-0.0011638528667390347,1.0802305936813354,
163606,-0.015573426149785519,0.04011627659201622,1.08449125289917,
163616,-0.03272946923971176,0.06872917711734772,1.1474509239196777,
163626,0.009667462669312954,-0.0046233125030994415,1.1101430654525757,
163636,0.02934635803103447,0.0034330589696764946,1.0806989669799805,
163646,-0.008176474831998348,0.06981341540813446,1.0477228164672852,
163656,-0.009273746982216835,0.08095922321081161,1.126999020576477,
163666,0.005808976478874683,0.05408215895295143,1.1006801128387451,
163676,0.011131733655929565,0.04757724329829216,1.080247163772583,
163686,0.017069321125745773,-0.005012805107980967,1.0744820833206177,
163696,0.012326664291322231,0.0021403676364570856,1.0588511228561401,
163706,-0.0016515941824764013,0.03401406109333038,1.0672802925109863,
163716,-0.0012857879046350718,0.032998912036418915,1.0610203742980957,
163726,-0.03317291662096977,5.711823177989572e-05,1.0704888105392456,
163736,0.006656305398792028,-0.013568457216024399,1.0662497282028198,
163746,-0.038140229880809784,-0.01842242106795311,1.0473114252090454,
163756,0.010755514726042747,0.08276088535785675,1.02884042263031,
163766,0.015620989724993706,0.0154412891715765,1.0267724990844727,
163776,-0.02660607546567917,0.04139851778745651,1.032244324684143,
163786,-0.017576565966010094,0.025279555469751358,1.0182807445526123,
163796,-0.023703500628471375,0.05088914558291435,0.9945142865180969,
163806,0.016115881502628326,0.049563970416784286,0.951389491558075,
163816,-0.014289689250290394,0.06666640192270279,0.9749155640602112,
163826,-0.012597460299730301,0.005376397166401148,0.9839719533920288,
163836,-0.036948222666978836,-0.0031975035089999437,0.9945808053016663,
163846,-0.00454005366191268,-0.012938262894749641,0.9618284106254578,
163856,-0.00016082912043202668,0.032159969210624695,0.9214024543762207,
163866,-0.01675397716462612,-0.025390980765223503,0.9548479318618774,
163876,0.009498115628957748,0.021874399855732918,0.9311223030090332,
163886,-0.00813376810401678,-0.010133610107004642,0.9514825940132141,
163896,-0.026101741939783096,-0.0224476158618927,0.9402835965156555,
163906,-0.001115296734496951,0.036251772195100784,0.9234312772750854,
163916,-0.02240746095776558,0.061611052602529526,0.9138099551200867,
163926,0.002787976060062647,0.019127707928419113,0.9204353094100952,
163936,0.026069439947605133,-0.007213753182440996,0.9003444314002991,
163946,-0.02345491200685501,0.01526311319321394,0.9258055686950684,
163956,0.01705746538937092,-0.027363458648324013,0.9397728443145752,
163966,0.00033049602643586695,0.04938739910721779,0.8968328833580017,
163976,-0.009348566643893719,0.008780218660831451,0.9101799726486206,
163986,-0.015148913487792015,0.01834455132484436,0.9105067849159241,
163996,0.005018687341362238,0.01828175224363804,0.8868822455406189,
164006,-0.023879891261458397,0.0016117728082463145,0.9421588778495789,
164016,-0.015178349800407887,-0.0251996498554945,0.9469959139823914,
164026,-0.004158170893788338,-0.013364547863602638,0.9175463318824768,
164036,0.017198635265231133,-0.03547416999936104,0.9156085252761841,
164046,-0.019923193380236626,0.01876083016395569,0.9345723390579224,
164056,-0.013040680438280106,-0.015577041544020176,0.9253816604614258,
164066,0.006869179662317038,0.038992274552583694,0.9011728167533875,
164076,-0.009628643281757832,0.018268726766109467,0.9334614872932434,
164086,-0.004921004641801119,0.022423960268497467,0.915850818157196,
164096,-0.017672577872872353,0.01779976859688759,0.9065879583358765,
164106,-0.010851936414837837,0.015352469868957996,0.9313509464263916,
164116,-0.01574729010462761,0.025140689685940742,0.8926855325698853,
164126,-0.0059324572794139385,0.012137348763644695,0.8968445658683777,
164136,-0.017629556357860565,0.006182829383760691,0.9350250959396362,
164146,0.014647654257714748,-0.0026499012019485235,0.9375256299972534,
164156,-0.027221547439694405,0.03973236307501793,0.8804194927215576,
164166,-0.027861928567290306,-0.014310023747384548,0.9117969870567322,
164176,-0.0009876213734969497,0.037257615476846695,0.9395867586135864,
164186,0.018513882532715797,0.004110382869839668,0.9125356674194336,
164196,0.001961244037374854,-0.010189040564000607,0.9226080775260925,
164206,-0.01361923012882471,0.05569411814212799,0.9331445693969727,
164216,0.0035390586126595736,0.07347458600997925,0.9300895929336548,
164226,0.008965125307440758,0.04746249318122864,0.922712504863739,
164236,-0.019604630768299103,0.04002416133880615,0.9505677223205566,
164246,0.007718553300946951,0.03464304283261299,0.9469220042228699,
164256,-0.024460522457957268,0.05592554807662964,0.9526382684707642,
164266,0.021187245845794678,-0.009127086959779263,0.9490143656730652,
164276,-0.008770306594669819,0.03269629552960396,0.9240177869796753,
164286,-0.007938540540635586,0.022805193439126015,0.9209520816802979,
164296,-0.0031805543694645166,0.012872092425823212,0.9497501254081726,
164306,0.006098426878452301,0.029382940381765366,0.9367102980613708,
164316,0.013753783889114857,-0.0027174768038094044,0.9141363501548767,
164326,-0.005300319753587246,0.026675298810005188,0.9263061881065369,
164336,-0.0018231547437608242,0.09111634641885757,0.937056303024292,
164346,0.019647452980279922,0.03786478564143181,0.9166212677955627,
164356,-0.06782028824090958,0.018804455175995827,0.9887278079986572,
164366,0.0065477448515594006,-0.0226281750947237,0.9236111044883728,
164376,0.00729312002658844,0.035438187420368195,0.9090896844863892,
164386,-0.009999125264585018,-0.0005647424259223044,0.9286669492721558,
164396,-0.013875225558876991,0.03179467096924782,0.931735098361969,
164406,-0.008149228058755398,0.008905792608857155,0.9175093770027161,
164416,-0.00021784345153719187,0.012504598125815392,0.9445451498031616,
164426,0.006953108124434948,0.01688411459326744,0.9492239356040955,
164436,-0.0009270322625525296,-0.006657682824879885,0.9491223692893982,
164446,0.0053957379423081875,-0.03020441345870495,0.9579814672470093,
164456,-0.01911344565451145,0.01816791109740734,0.9181379675865173,
164466,-0.0035104553680866957,-0.04236338660120964,0.9688623547554016,
164476,-0.015394613146781921,0.043204206973314285,0.9732978940010071,
164486,0.025737803429365158,-0.02392508089542389,0.9417721629142761,
164496,0.016711143776774406,-0.016162285581231117,0.9451938271522522,
164506,0.028943855315446854,-0.02984081394970417,0.9662381410598755,
164516,0.006118348333984613,-0.007165378890931606,0.9402543306350708,
164526,0.015225435607135296,-0.0029082070104777813,0.943260669708252,
164536,0.016577083617448807,0.07969260960817337,0.9399126768112183,
164546,-0.02386607602238655,0.01973797380924225,0.9838064312934875,
164556,-0.00721179461106658,-0.019641606137156487,0.968140184879303,
164566,0.012243907898664474,0.0023654052056372166,0.9522157311439514,
164576,0.0007400866597890854,-0.020129991695284843,0.9652956128120422,
164586,0.012819236144423485,0.009312172420322895,0.9634186029434204,
164596,0.00855321902781725,0.006121134385466576,0.9681764841079712,
164606,0.008787233382463455,0.008399528451263905,0.9802467823028564,
164616,-0.002750950865447521,0.026941681280732155,0.9854534268379211,
164626,0.0022648097947239876,0.013540095649659634,1.017844796180725,
164636,0.0017659291625022888,0.018669266253709793,0.9808371663093567,
164646,0.0015520224114879966,-0.015801241621375084,1.0051370859146118,
164656,0.006751447916030884,-0.024632848799228668,1.0091240406036377,
164666,0.0015987919177860022,-0.020909562706947327,1.0189039707183838,
164676,-0.01911095902323723,0.019753551110625267,1.021182656288147,
164686,0.043689925223588943,0.0031093417201191187,0.9774758219718933,
164696,0.025284014642238617,0.0029667129274457693,0.9678177237510681,
164706,0.018909724429249763,0.01672641560435295,1.0189573764801025,
164716,-0.01916211098432541,-0.023236321285367012,1.0641528367996216,
164726,0.012312878854572773,0.025110706686973572,0.9915218949317932,
164736,0.01942923106253147,0.03352979198098183,1.0046648979187012,
164746,0.014818494208157063,0.05175517499446869,1.021406650543213,
164756,0.043163031339645386,-0.033535901457071304,1.012026071548462,
164766,0.02254405803978443,0.001998569117859006,1.02794349193573,
164776,-0.0015938074793666601,0.0023404660169035196,1.0354355573654175,
164786,-0.0007553767645731568,0.031827010214328766,1.049437403678894,
164796,0.02916821464896202,0.005385129246860743,1.0387533903121948,
164806,0.033510562032461166,0.010454762727022171,1.0300624370574951,
164816,0.008707208558917046,0.025766925886273384,1.0367941856384277,
164826,0.02330835349857807,-0.014876642264425755,1.0423448085784912,
164836,0.003621611511334777,-0.005009119864553213,1.0363167524337769,
164846,0.008062849752604961,0.015917306765913963,1.0456554889678955,
164856,0.006881240289658308,0.0065250033512711525,1.02509343624115,
164866,0.009134875610470772,-0.0007964889518916607,1.0582529306411743,
164876,0.022875523194670677,0.011361231096088886,1.0180919170379639,
164886,0.001705776434391737,0.012332278303802013,1.023275375366211,
164896,0.031521111726760864,-0.019364438951015472,1.0510293245315552,
164906,0.013786003924906254,0.01393826026469469,1.0278359651565552,
164916,-0.004563617054373026,-0.015360441990196705,1.044989824295044,
164926,0.01558239571750164,-0.016317585483193398,1.0471065044403076,
164936,-0.014909818768501282,0.002384902909398079,1.0723237991333008,
164946,0.028948204591870308,-0.005554738454520702,1.0581892728805542,
164956,0.02187751978635788,-0.025192784145474434,1.0615777969360352,
164966,0.019587526097893715,0.006579100154340267,1.0808839797973633,
164976,0.01881895586848259,0.023692242801189423,1.0645513534545898,
164986,-0.003679450834169984,-0.03754085302352905,1.0756767988204956,
164996,-0.003034384921193123,0.019855614751577377,1.0635963678359985,
165006,0.02019307017326355,0.022224055603146553,1.0329601764678955,
165016,0.005526083055883646,0.0020042797550559044,1.051242470741272,
165026,0.01128529291599989,-0.009544264525175095,1.0618200302124023,
165036,0.011365516111254692,-0.007711009122431278,1.045707106590271,
165046,0.0142206447198987,-0.002190806670114398,1.0347574949264526,
165056,0.015433352440595627,0.00038826896343380213,1.0467685461044312,
165066,0.0003941119066439569,0.02457168698310852,1.0303981304168701,
165076,0.04317436367273331,0.021520385518670082,1.0248860120773315,
165086,0.019103936851024628,-0.005253664683550596,1.0308151245117188,
165096,0.00886701699346304,0.030561944469809532,1.0503250360488892,
165106,0.019951986148953438,0.014748255722224712,1.0059232711791992,
165116,0.010158594697713852,0.006488109473139048,1.0310475826263428,
165126,0.010912078432738781,-0.013248207047581673,1.0601263046264648,
165136,0.009393337182700634,-0.006517188623547554,1.040596604347229,
165146,0.01053669024258852,-0.004154655616730452,1.0119141340255737,
165156,0.02540210261940956,-0.01662774756550789,1.0234917402267456,
165166,0.010150947608053684,0.013689305633306503,1.0165766477584839,
165176,0.01714433543384075,0.0020203543826937675,1.0346319675445557,
165186,0.0003164874215144664,-0.008701033890247345,1.0120375156402588,
165196,0.0015884225722402334,-0.030529305338859558,1.0071020126342773,
165206,0.00588472792878747,-0.011522460728883743,0.9982939958572388,
165216,0.02153528481721878,0.0071382587775588036,1.0147186517715454,
165226,0.03825727105140686,0.05201176181435585,0.9889717102050781,
165236,-0.010977388359606266,-0.005206586793065071,1.041123628616333,
165246,0.0068517629988491535,0.0036419511307030916,1.003796935081482,
165256,0.008697000332176685,0.022416893392801285,1.0023539066314697,
165266,0.014583577401936054,-0.012959418818354607,0.9865283966064453,
165276,0.009601999074220657,-0.010666930116713047,0.9783442616462708,
165286,0.00075096933869645,-0.010068494826555252,1.011391043663025,
165296,0.008948072791099548,-0.014570165425539017,0.9812518358230591,
165306,0.009769194759428501,0.018917884677648544,0.9854763150215149,
165316,0.01378414686769247,0.05136626586318016,0.978111982345581,
165326,0.02198847383260727,0.004783322103321552,0.9487646818161011,
165336,0.032265812158584595,-0.0361604169011116,0.9842751622200012,
165346,0.02857516147196293,0.028840528801083565,0.9716964364051819,
165356,0.018748696893453598,-0.002976818010210991,0.9734167456626892,
165366,0.002290938515216112,0.009587792679667473,0.9778317213058472,
165376,0.012371731922030449,-0.011312795802950859,0.9678170084953308,
165386,-0.0160891842097044,-0.014713065698742867,0.9738362431526184,
165396,0.005222578998655081,0.0352645106613636,0.9485015273094177,
165406,0.0019866647198796272,0.021328676491975784,0.9470240473747253,
165416,0.010761981830000877,0.0033213167916983366,0.9427626729011536,
165426,0.0014468024019151926,0.0030041136778891087,0.9352295994758606,
165436,0.019832957535982132,-0.008428347297012806,0.9598516821861267,
165446,0.0016816988354548812,0.014598996378481388,0.9390397071838379,
165456,0.007579278200864792,0.0023521145340055227,0.9465019702911377,
165466,-0.009094920009374619,0.022222168743610382,0.9911481738090515,
165476,0.010718321427702904,-0.0001313973480137065,0.9324702024459839,
165486,-0.026331225410103798,-0.009336714632809162,0.9398408532142639,
165496,-0.0030781396199017763,-0.0025689376052469015,0.9766162633895874,
165506,0.0032308606896549463,0.003732073586434126,0.9652532935142517,
165516,0.004973088391125202,-0.011752262711524963,0.9423919320106506,
165526,0.016952255740761757,-0.014362210407853127,0.9711202383041382,
165536,-0.0032038800418376923,0.03914635628461838,0.918272078037262,
165546,0.02488306723535061,-0.0019640163518488407,0.9212023615837097,
165556,0.008228626102209091,-0.00510348891839385,0.9696847796440125,
165566,0.04779498651623726,-0.0032319456804543734,0.9372516870498657,
165576,-0.004625646397471428,0.03154788911342621,0.9457740783691406,
165586,-0.013666101731359959,0.03621550649404526,1.0027567148208618,
165596,0.034013085067272186,0.08851411193609238,0.9571495652198792,
165606,-0.020959846675395966,0.01682041585445404,0.977988064289093,
165616,-0.023705188184976578,0.06269259005784988,0.9422657489776611,
165626,0.022531934082508087,0.031215615570545197,0.9456223249435425,
165636,0.0022464802023023367,0.03604999929666519,0.9958280324935913,
165646,0.015064421109855175,0.010566757060587406,0.9607937335968018,
165656,-0.0006901313317939639,0.03482642024755478,0.9520780444145203,
165666,-0.010947680100798607,0.001998511143028736,0.9933052659034729,
165676,-0.008489224128425121,0.018757792189717293,0.9755973815917969,
165686,0.0237684715539217,-0.009712910279631615,0.9525116682052612,
165696,-0.010836717672646046,-0.012479799799621105,1.0159504413604736,
165706,-0.003978699445724487,-0.0021067967172712088,0.9835930466651917,
165716,0.004306836985051632,0.017571980133652687,0.9717743396759033,
165726,-0.007004431914538145,0.01609097793698311,0.9876037836074829,
165736,-0.014277206733822823,0.017675217241048813,0.9859278202056885,
165746,0.006378500256687403,-0.003710320685058832,1.0011461973190308,
165756,0.011888530105352402,0.017592040821909904,0.9927384853363037,
165766,0.00018227707187179476,-0.015530125238001347,1.0125913619995117,
165776,0.0060305106453597546,0.040981341153383255,0.9929149746894836,
165786,0.035124484449625015,0.01057696808129549,0.9718804955482483,
165796,-0.003828168148174882,0.02055175229907036,0.9893375635147095,
165806,0.011518660932779312,0.08589792996644974,1.010836124420166,
165816,0.007379390764981508,0.005642121657729149,1.030875325202942,
165826,0.01798475719988346,-0.018017418682575226,0.9783080816268921,
165836,0.008564247749745846,0.0634722039103508,0.9789680242538452,
165846,0.025374237447977066,0.07244567573070526,1.0278942584991455,
165856,-0.020642897114157677,0.005672677420079708,1.0370405912399292,
165866,0.0002467394224368036,0.035454850643873215,0.9821258187294006,
165876,0.005757941398769617,-0.012747439555823803,0.9928895831108093,
165886,-0.008601552806794643,0.06652063876390457,0.9864292740821838,
165896,-0.009846125729382038,-0.004101756494492292,1.014223575592041,
165906,-0.02308647893369198,0.006581760011613369,1.0219428539276123,
165916,0.018453393131494522,0.006952302996069193,0.9841785430908203,
165926,-0.00832255370914936,-5.334206798579544e-05,0.9968838691711426,
165936,-0.0011033318005502224,-0.0028278620447963476,0.996712863445282,
165946,-0.023637916892766953,-0.004337307997047901,1.0128823518753052,
165956,-0.0042103128507733345,-0.008218536153435707,0.9947502613067627,
165966,0.005939604714512825,0.0034155508037656546,0.9898386597633362,
165976,0.014008252881467342,0.01246549654752016,1.0235490798950195,
165986,-0.006383997853845358,0.023930702358484268,0.9859986305236816,
165996,-0.020738203078508377,-0.016367357224225998,1.0315073728561401,
166006,0.008599531836807728,-0.011417333967983723,1.0189740657806396,
166016,0.0032745059579610825,0.03026662766933441,0.9716079831123352,
166026,0.015018004924058914,0.022391680628061295,1.0130598545074463,
166036,0.00903679896146059,0.0327492281794548,1.005751609802246,
166046,0.015155084431171417,-0.02803013287484646,0.990149974822998,
166056,0.020763307809829712,0.02692178264260292,0.9879457950592041,
166066,0.040597908198833466,0.01506656315177679,0.9662827849388123,
166076,0.013870341703295708,0.00631159171462059,1.0194700956344604,
166086,-0.014634770341217518,0.03189995139837265,1.0427982807159424,
166096,-0.01672002673149109,0.004854236729443073,1.0165263414382935,
166106,-0.021959975361824036,0.035439200699329376,1.0054301023483276,
166116,0.047449227422475815,-0.014005146920681,0.9493342638015747,
166126,0.007536372169852257,0.004968659486621618,1.0093028545379639,
166136,0.012309939600527287,0.004332918208092451,1.011776328086853,
166146,0.006882854271680117,0.017859866842627525,1.0068494081497192,
166156,0.0034296680241823196,0.012370125390589237,1.007683515548706,
166166,-0.005056476686149836,-0.01674528419971466,1.0119597911834717,
166176,0.0014168989146128297,-0.0233395304530859,1.033279299736023,
166186,0.0036309165880084038,-0.004935698118060827,1.0153653621673584,
166196,0.004530568141490221,0.007570337038487196,1.0246833562850952,
166206,-0.00028480723267421126,0.0013103598030284047,1.002699613571167,
166216,-0.01143717858940363,0.007909206673502922,0.9966288805007935,
166226,-0.010507852770388126,-0.00107478816062212,1.04505455493927,
166236,-0.011553947813808918,0.011154386214911938,1.0225971937179565,
166246,-0.004961609840393066,0.005035061854869127,1.0226333141326904,
166256,0.009682235307991505,0.00024537619901821017,0.9804799556732178,
166266,0.009105339646339417,-0.0047137741930782795,1.0250493288040161,
166276,0.018744027242064476,0.0727522075176239,1.0116515159606934,
166286,0.02371883951127529,0.04922148212790489,1.011568546295166,
166296,0.004738379269838333,-0.06029728800058365,1.0593243837356567,
166306,-0.00859211664646864,0.07311628758907318,1.0247396230697632,
166316,-0.029507778584957123,0.003347177989780903,1.0419795513153076,
166326,-0.0050919558852910995,0.03300315886735916,0.9902104735374451,
166336,0.03017979860305786,0.029045982286334038,0.9994920492172241,
166346,0.007761744316667318,-0.01860838755965233,0.99092698097229,
166356,0.015239140018820763,0.01030314527451992,1.019283413887024,
166366,-0.040802884846925735,-0.006125034298747778,1.0454845428466797,
166376,-0.01164291799068451,0.07504237443208694,1.0192241668701172,
166386,-0.0010350941447541118,0.07419972121715546,0.9969831109046936,
166396,-0.024631120264530182,0.01568078249692917,1.0025018453598022,
166406,0.015264646150171757,-0.004776681773364544,0.9791749715805054,
166416,-0.011584608815610409,-0.00903407298028469,1.024419903755188,
166426,-0.004135434050112963,-0.009677773341536522,1.026429533958435,
166436,-0.015330905094742775,0.032518163323402405,0.9958711266517639,
166446,0.016520339995622635,-0.0026879452634602785,0.980018675327301,
166456,0.013555023819208145,0.011666901409626007,0.9756391644477844,
166466,0.005022915545850992,0.016125597059726715,1.0080512762069702,
166476,-0.02184920199215412,0.019365884363651276,0.9937912821769714,
166486,-0.00045116760884411633,0.03305521979928017,0.9753379225730896,
166496,-0.005558195989578962,0.03768523037433624,0.9986171722412109,
166506,0.024106116965413094,0.017838528379797935,1.0013811588287354,
166516,0.007850992493331432,-0.04663470387458801,1.0227102041244507,
166526,-0.03822305053472519,0.019600875675678253,1.015170931816101,
166536,0.018435344099998474,-0.01857793517410755,0.9620716571807861,
166546,0.001216180738992989,0.03100728429853916,0.9877416491508484,
166556,-0.002295530866831541,0.01731446199119091,1.0015945434570312,
166566,-0.018352041020989418,0.014550519175827503,1.0088032484054565,
166576,-0.006326877046376467,0.005201584659516811,1.018468976020813,
166586,-0.011335165239870548,0.0007111546583473682,1.0023529529571533,
166596,-0.006347374990582466,-0.028133468702435493,1.0077484846115112,
166606,0.0028707017190754414,0.03617748245596886,1.0102574825286865,
166616,0.006608085241168737,-0.00566673930734396,1.0123757123947144,
166626,-0.01657094806432724,0.0004250183701515198,1.0243574380874634,
166636,-0.008000818081200123,0.01100629661232233,1.0105441808700562,
166646,0.0035824542865157127,0.009219699539244175,0.9803585410118103,
166656,0.0190728772431612,-0.002747813006862998,0.9819818139076233,
166666,0.012632234953343868,-0.011377740651369095,1.0052436590194702,
166676,-0.006644826382398605,0.02563067153096199,1.0190755128860474,
166686,-0.010011193342506886,0.06098194047808647,0.9874904751777649,
166696,-0.006101226434111595,0.07241477072238922,0.9752420783042908,
166706,0.037793271243572235,-0.01832561567425728,0.9877817630767822,
166716,-0.0017268089577555656,0.0008849303121678531,0.9850950241088867,
166726,0.015663346275687218,-0.0035610999912023544,1.0051558017730713,
166736,-0.006369270384311676,0.04419806972146034,1.0122944116592407,
166746,0.014833937399089336,-0.0009604534134268761,0.994732677936554,
166756,0.010229232721030712,0.008573961444199085,0.9996224641799927,
166766,-0.00642499141395092,0.003670442383736372,0.9967060089111328,
166776,-0.015179472975432873,0.02080732211470604,1.0047049522399902,
166786,-0.006168524734675884,0.008372975513339043,1.0212428569793701,
166796,-0.007844982668757439,-0.013806278817355633,0.9882217645645142,
166806,-0.010988534428179264,0.0005049961037002504,1.0224707126617432,
166816,0.017227500677108765,0.04500946030020714,1.0009245872497559,
166826,-0.024019518867135048,-0.0030173473060131073,1.06368088722229,
166836,-0.016824111342430115,-0.027311846613883972,1.017398715019226,
166846,0.004378141835331917,0.07609186321496964,0.9710977673530579,
166856,-0.0004072933807037771,0.033126555383205414,0.9701420068740845,
166866,0.021229222416877747,0.06874144077301025,0.9889048933982849,
166876,0.010226583108305931,0.022249605506658554,1.0272307395935059,
166886,-0.01708185113966465,0.05272955447435379,1.0124878883361816,
166896,-0.011475271545350552,0.03675663098692894,0.9934917092323303,
166906,-0.015076905488967896,0.002805989235639572,0.9793445467948914,
166916,0.005966633092612028,0.003922519274055958,0.9747995734214783,
166926,-0.010074522346258163,-0.004406939726322889,0.9920171499252319,
166936,-0.018179504200816154,-0.033539142459630966,1.0112698078155518,
166946,-0.0009967789519578218,0.05728437379002571,0.9623974561691284,
166956,0.04020274057984352,0.004048916976898909,0.9733877778053284,
166966,-0.006010773126035929,0.014270496554672718,1.0217863321304321,
166976,0.005974780302494764,0.03973666578531265,1.0158172845840454,
166986,-0.0024282364174723625,0.03331388905644417,0.9829744100570679,
166996,0.029697535559535027,-0.02860192209482193,0.9853736162185669,
167006,0.001036244910210371,-0.0015338228549808264,0.9998508095741272,
167016,-0.027272947132587433,0.03608758747577667,1.0024932622909546,
167026,-0.016029121354222298,0.07515899091959,0.9539275169372559,
167036,0.021191101521253586,0.035097651183605194,0.9966380596160889,
167046,-0.037225015461444855,0.012781605124473572,1.0149800777435303,
167056,0.0008413422619923949,0.0363236702978611,0.9944470524787903,
167066,-0.0222901850938797,0.010060826316475868,0.9943755865097046,
167076,3.123018177575432e-05,0.007606782019138336,0.976340651512146,
167086,-0.004452483728528023,0.009866713546216488,0.999441921710968,
167096,-0.024975363165140152,-0.025425279513001442,1.030582308769226,
167106,-0.022705428302288055,0.019871462136507034,0.9873561859130859,
167116,0.020007673650979996,0.03044593706727028,0.9617171883583069,
167126,-0.0021444489248096943,0.06078387796878815,1.00589919090271,
167136,0.0052992720156908035,0.04022732749581337,1.0238946676254272,
167146,-0.03153213858604431,0.00374859431758523,1.0375176668167114,
167156,0.0017290126997977495,0.04030750319361687,0.9813596606254578,
167166,0.02261478453874588,0.009603220969438553,0.9793611168861389,
167176,-0.04226459562778473,0.0304882675409317,1.0221595764160156,
167186,-0.016338296234607697,0.007776371203362942,1.0010581016540527,
167196,-0.01799042709171772,0.037662629038095474,0.9861823916435242,
167206,0.0008567236363887787,0.021539023146033287,0.9811809062957764,
167216,-0.001176705351099372,0.026177577674388885,0.9755553603172302,
167226,-0.010672366246581078,0.008622407913208008,1.0140407085418701,
167236,-0.007854809053242207,0.007650103885680437,1.002423644065857,
167246,-0.0024747499264776707,-0.02983694151043892,0.9882945418357849,
167256,-0.006235591135919094,0.011095432564616203,0.9947704076766968,
167266,0.019442128017544746,-0.005474890116602182,0.9937211275100708,
167276,0.006111958064138889,0.03687649592757225,1.0057153701782227,
167286,-0.0066602169536054134,0.03126255422830582,1.034100890159607,
167296,-0.030295519158244133,0.010068999603390694,1.007783055305481,
167306,-0.008585574105381966,0.0004300431173760444,0.9763721227645874,
167316,0.01749848760664463,0.03069816529750824,0.9699441194534302,
167326,0.02218833938241005,0.08430236577987671,1.0089892148971558,
167336,-0.0009413246880285442,0.017735358327627182,1.0359653234481812,
167346,-0.04792911931872368,0.03401729092001915,0.9939943552017212,
167356,-0.01411827839910984,-0.002281332388520241,1.0092493295669556,
167366,-0.00465009268373251,0.017765607684850693,1.0077711343765259,
167376,0.007890845648944378,-0.016577469184994698,1.0145310163497925,
167386,0.017122525721788406,0.01691676862537861,1.0120124816894531,
167396,0.017332881689071655,0.005812094081193209,1.0039458274841309,
167406,-0.0015382996061816812,0.025662818923592567,1.0066635608673096,
167416,0.003221004968509078,0.028513073921203613,1.020096778869629,
167426,-0.021617332473397255,-0.0004914570017717779,1.0208708047866821,
167436,-0.004565986339002848,0.008488563820719719,0.9992511868476868,
167446,-0.008764121681451797,0.03337908536195755,0.9415589570999146,
167456,0.0009803319117054343,0.03732352331280708,0.9925689101219177,
167466,0.028444519266486168,-0.020685484632849693,1.0153218507766724,
167476,-0.028242308646440506,0.05921925976872444,0.9734668135643005,
167486,-0.018061067909002304,0.07345179468393326,1.0142654180526733,
167496,-0.01679130643606186,0.0597456730902195,1.0125529766082764,
167506,0.01717389188706875,0.003909237217158079,1.0110409259796143,
167516,0.009784662164747715,0.011466912925243378,1.0123095512390137,
167526,-0.0053941234946250916,-0.00202730274759233,1.013710856437683,
167536,0.0054161520674824715,0.03858000412583351,1.027732491493225,
167546,0.016944944858551025,0.014707176946103573,1.0271822214126587,
167556,-0.042501527816057205,-0.009205167181789875,1.029190182685852,
167566,-0.011790425516664982,0.050298627465963364,1.0279711484909058,
167576,0.017481066286563873,0.07245460152626038,0.9589003920555115,
167586,-0.01600315421819687,0.00116253353189677,0.97435462474823,
167596,-0.000546529539860785,-0.014813724905252457,1.011844277381897,
167606,-0.004277904983609915,0.06991913169622421,1.0082625150680542,
167616,-0.01291137095540762,0.013803371228277683,1.0647525787353516,
167626,-0.010418680496513844,-0.004927072674036026,0.9907553791999817,
167636,0.007630175910890102,0.020117832347750664,0.9722126722335815,
167646,0.004091192502528429,0.05427846685051918,0.9857500195503235,
167656,0.049256760627031326,0.04043738543987274,1.0118000507354736,
167666,0.003453426994383335,-0.020591063424944878,1.032524824142456,
167676,0.011953907087445259,0.0852617621421814,0.9789011478424072,
167686,-0.004345133434981108,0.017646726220846176,0.9744691848754883,
167696,-0.015819482505321503,0.01473197527229786,1.0013123750686646,
167706,0.017858613282442093,0.002934404881671071,0.9898553490638733,
167716,-0.021440429612994194,-0.015170963481068611,1.021257758140564,
167726,-0.010346764698624611,0.03220899775624275,1.0131746530532837,
167736,-0.010378620587289333,0.06144155561923981,1.0331767797470093,
167746,-0.028590887784957886,-0.002482031937688589,1.0396952629089355,
167756,-0.0030056163668632507,0.025116194039583206,0.983379065990448,
167766,0.00325292581692338,-0.0021817951928824186,1.0014210939407349,
167776,0.0005912526394240558,0.07359389215707779,0.9973165392875671,
167786,-0.006811079569160938,0.031162641942501068,1.0170998573303223,
167796,-0.01815507747232914,0.02380278892815113,0.989280104637146,
167806,0.028493240475654602,0.08237750828266144,0.9624513387680054,
167816,0.011347157880663872,0.030102793127298355,0.9802889823913574,
167826,-0.021911751478910446,0.0073660509660840034,0.9917216897010803,
167836,0.003748719347640872,-0.017090529203414917,0.9898229837417603,
167846,-0.005954751279205084,-0.009297196753323078,1.0068997144699097,
167856,0.003921934869140387,0.02930593676865101,0.964933454990387,
167866,-0.004601410124450922,-0.0005926804151386023,1.0214325189590454,
167876,-0.02517571486532688,0.01102813147008419,1.0055259466171265,
167886,0.0030911979265511036,0.020451052114367485,0.991393506526947,
167896,-0.004867550451308489,0.033846840262413025,0.9854020476341248,
167906,0.019230039790272713,0.034335460513830185,0.9807204008102417,
167916,-0.0002699968172237277,-0.011607249267399311,1.0026631355285645,
167926,-0.025637822225689888,0.00896388292312622,1.0122302770614624,
167936,-0.01232236623764038,0.011327790096402168,0.9835665225982666,
167946,-0.0065386416390538216,0.06985274702310562,0.9563218951225281,
167956,0.015379885211586952,-0.004286139737814665,0.9845048189163208,
167966,-0.03128807619214058,0.014649651013314724,0.9913397431373596,
167976,0.011285980232059956,-0.005414541345089674,1.0225499868392944,
167986,-0.006099754013121128,0.03874237835407257,0.9951243996620178,
167996,0.005478103179484606,0.014812090434134007,1.020337700843811,
168006,0.0052223606035113335,0.027126871049404144,1.0104864835739136,
168016,0.004676058888435364,0.00030355495982803404,0.9955345988273621,
168026,-0.010800493881106377,0.006399927660822868,1.0033848285675049,
168036,-0.008736585266888142,0.0031649230513721704,1.0040894746780396,
168046,-0.010982467792928219,-0.014623019844293594,0.991416871547699,
168056,-0.006908026989549398,0.005938147194683552,0.9963900446891785,
168066,-0.0008374843746423721,0.02155023068189621,0.9607327580451965,
168076,-0.026402920484542847,0.029717566445469856,1.0084635019302368,
168086,0.008502522483468056,-0.00789406057447195,1.0214204788208008,
168096,-0.0097239064052701,0.02062050811946392,1.0163137912750244,
168106,-0.0058783842250704765,0.04514700546860695,1.0734550952911377,
168116,-0.02127290517091751,0.006844419054687023,1.050243854522705,
168126,-0.016694406047463417,-0.00219044485129416,0.9790505766868591,
168136,-0.003930007107555866,0.05267591029405594,0.9897572994232178,
168146,-0.007141971029341221,0.10125008970499039,0.9878793358802795,
168156,0.021036436781287193,0.003420788561925292,1.0055952072143555,
168166,0.0017889303853735328,0.006839598063379526,0.9798124432563782,
168176,-0.00904973316937685,-0.03635033965110779,1.0184910297393799,
168186,-0.005290589295327663,0.023251520469784737,1.022722601890564,
168196,-0.007506032008677721,0.0027583190239965916,1.0161824226379395,
168206,-0.03527025878429413,-0.008844558149576187,0.9985560774803162,
168216,-0.009905882179737091,0.00866638869047165,0.992745041847229,
168226,0.005254217889159918,0.047522351145744324,0.9834654927253723,
168236,0.010929889976978302,-0.0039029093459248543,1.0004820823669434,
168246,-0.004603326786309481,-0.02588856779038906,1.007303237915039,
168256,-0.016946149989962578,0.022520190104842186,1.0119874477386475,
168266,0.00375563045963645,0.01390725839883089,0.9932498931884766,
168276,-0.007214936427772045,0.02722008153796196,1.0115299224853516,
168286,0.00803420040756464,-0.014844294637441635,1.0143487453460693,
168296,-0.009318741969764233,0.043377287685871124,1.0084774494171143,
168306,-0.015693793073296547,0.009270397014915943,1.0543186664581299,
168316,-0.02070302702486515,0.029149452224373817,1.0027838945388794,
168326,0.02984239161014557,0.04981048032641411,0.9950028657913208,
168336,-0.0068344855681061745,0.02350858971476555,0.9839460253715515,
168346,-0.015599103644490242,0.04007752612233162,0.9745112657546997,
168356,-0.01745377853512764,-0.0026927755679935217,0.9992145299911499,
168366,0.007873865775763988,-0.004681597929447889,0.9810510873794556,
168376,-0.0006178516778163612,-0.011321265250444412,0.9917014837265015,
168386,-0.008093205280601978,0.0032750284299254417,1.0015538930892944,
168396,-0.0064241401851177216,0.0022323797456920147,0.983519971370697,
168406,-0.030025362968444824,0.008733888156712055,1.0197242498397827,
168416,-0.0060529704205691814,0.0029948046430945396,0.9823137521743774,
168426,0.0029668204952031374,0.0002831896999850869,0.9709011912345886,
168436,0.004129443783313036,0.003394597675651312,0.9931358695030212,
168446,-0.012751190923154354,0.03557085618376732,0.980536162853241,
168456,-0.014067799784243107,0.005432670004665852,1.020121693611145,
168466,-0.0013423374621197581,0.006650913041085005,0.9554106593132019,
168476,0.012165368534624577,0.04143210127949715,0.9538488388061523,
168486,0.016209667548537254,0.10805868357419968,0.9907264113426208,
168496,0.020226163789629936,0.03981544449925423,1.020106554031372,
168506,-0.0352339930832386,-0.03362368792295456,1.023323893547058,
168516,-0.022649414837360382,0.09092593938112259,0.9941872954368591,
168526,0.022604452446103096,0.04429248347878456,0.9416713714599609,
168536,-0.016255248337984085,0.01645461469888687,0.9962764978408813,
168546,0.01248185895383358,0.015246187336742878,1.000098705291748,
168556,-0.0032585624139755964,0.04834643378853798,0.9896430373191833,
168566,-0.0014638928696513176,0.037616536021232605,1.021524429321289,
168576,0.002902461914345622,0.02035178430378437,0.9870240092277527,
168586,0.018368061631917953,-0.028335941955447197,1.010017991065979,
168596,0.02019723318517208,0.030389167368412018,0.9978698492050171,
168606,0.012872349470853806,0.0031992453150451183,0.9971829056739807,
168616,-0.002530558966100216,-0.021564863622188568,1.034783959388733,
168626,0.010458067059516907,0.011844268068671227,1.0104249715805054,
168636,-0.02145618572831154,-0.02890416979789734,1.0137261152267456,
168646,0.0036895733792334795,0.018456852063536644,0.9925527572631836,
168656,0.003210994880646467,-0.0020996774546802044,0.9956368207931519,
168666,-0.01836618222296238,0.02150040492415428,0.9894213080406189,
168676,0.009640548378229141,0.03994191065430641,1.0020474195480347,
168686,-0.026558892801404,-0.028113827109336853,1.0201363563537598,
168696,-0.018615178763866425,-0.02186543308198452,1.0030267238616943,
168706,-0.011381433345377445,0.08455072343349457,0.9884434938430786,
168716,0.015918467193841934,0.06187296658754349,0.994824230670929,
168726,0.00981888733804226,-0.001117733190767467,1.00125253200531,
168736,-0.014012236148118973,0.03076106123626232,0.9911312460899353,
168746,-0.00048416867502965033,0.016604304313659668,0.987549364566803,
168756,-0.003973032813519239,0.023612307384610176,0.9931108951568604,
168766,0.019760746508836746,0.005784072447568178,0.9912924766540527,
168776,-0.0019634119234979153,-0.0027511613443493843,1.0211936235427856,
168786,0.0019591927994042635,0.00714814243838191,1.000925898551941,
168796,-0.022608958184719086,0.023023325949907303,1.0408309698104858,
168806,-0.012497389689087868,0.009080651216208935,0.9820690751075745,
168816,-0.0030070985667407513,0.019503531977534294,0.9671872854232788,
168826,0.016141826286911964,-0.02930503338575363,0.9967321157455444,
168836,0.007614180911332369,0.05704950541257858,0.9800074696540833,
168846,-0.015905950218439102,0.045409172773361206,1.013697862625122,
168856,-0.03263884782791138,0.004633793141692877,1.0053081512451172,
168866,0.007775718811899424,0.0160520002245903,0.9728549122810364,
168876,0.024119287729263306,-0.0164791289716959,0.9730367064476013,
168886,0.006563788745552301,0.013534316793084145,0.9950832724571228,
168896,-0.020077934488654137,-0.014000271447002888,1.0268690586090088,
168906,-0.014398399740457535,-0.0006377269164659083,1.0256764888763428,
168916,-0.023768356069922447,-0.0036347757559269667,0.982361912727356,
168926,-0.017059335485100746,0.004743899684399366,1.0292487144470215,
168936,0.017019309103488922,0.05390017479658127,0.9948199987411499,
168946,0.013604466803371906,0.0060786036774516106,1.0082323551177979,
168956,-0.00443364167585969,-0.04036502540111542,1.0230939388275146,
168966,-0.0005989233613945544,0.0726475641131401,1.0037331581115723,
168976,-0.005952089559286833,0.02536359243094921,0.9827237129211426,
168986,-0.011981604620814323,0.05497855320572853,0.9801309108734131,
168996,0.05135774239897728,0.05633800849318504,0.9534577131271362,
169006,-0.006248814519494772,-0.01913806051015854,1.0247318744659424,
169016,-0.013019734993577003,-0.02535346895456314,0.9986315965652466,
169026,0.004426533356308937,0.03607805073261261,0.9687033891677856,
169036,0.02274857647716999,0.005340452305972576,0.9892845153808594,
169046,0.012698058038949966,0.011381439864635468,0.9831957817077637,
169056,-0.0032153187785297632,0.003597447881475091,0.9947435259819031,
169066,-0.02444843016564846,0.008453303016722202,1.0084927082061768,
169076,-0.012578587047755718,0.007482009474188089,1.0157482624053955,
169086,-0.013488088734447956,0.030393077060580254,0.9872920513153076,
169096,0.020540939643979073,0.007526077330112457,0.9721202850341797,
169106,0.02579965814948082,-0.022672582417726517,0.9882571697235107,
169116,0.0098799467086792,0.013836637139320374,1.0335592031478882,
169126,-0.004890071228146553,0.040777210146188736,1.0121328830718994,
169136,-0.013103042729198933,0.029949359595775604,1.0031237602233887,
169146,0.012053856626152992,-0.035147976130247116,0.9992468953132629,
169156,0.009618904441595078,0.04623764008283615,0.9840328097343445,
169166,-0.0013487901305779815,0.0106029212474823,0.9733288884162903,
169176,-0.028497876599431038,-0.006503595504909754,1.0290565490722656,
169186,-0.003061736701056361,-0.0029360754415392876,0.9933570623397827,
169196,-0.019474653527140617,0.000196492052054964,0.9971619844436646,
169206,0.012904072180390358,-0.015812790021300316,0.9811279773712158,
169216,0.026087669655680656,0.057069726288318634,1.0251106023788452,
169226,-0.0034325988963246346,0.03626959025859833,1.0434781312942505,
169236,-0.035462573170661926,0.04015478864312172,1.0127471685409546,
169246,-0.0020074949134141207,0.0038777883164584637,1.0126214027404785,
169256,0.0037125691305845976,0.019934508949518204,1.0030238628387451,
169266,0.0006868187338113785,-0.04827339947223663,1.0004119873046875,
169276,0.0007494735182262957,0.011533044278621674,1.0317339897155762,
169286,-0.009877733886241913,-0.005239417310804129,1.030182123184204,
169296,-0.02141506038606167,0.015458948910236359,0.9838956594467163,
169306,-0.0038191829808056355,0.03595210239291191,1.037697672843933,
169316,-0.024106185883283615,0.006847732700407505,1.0044833421707153,
169326,0.012637580744922161,0.0005244023050181568,0.9681029319763184,
169336,-0.01019557099789381,0.02826165221631527,0.9796909093856812,
169346,0.009148664772510529,0.008518372662365437,1.0196398496627808,
169356,-0.010999933816492558,0.011278429999947548,1.0045554637908936,
169366,-0.015917116776108742,-0.026430996134877205,1.0335355997085571,
169376,0.023576609790325165,0.022316670045256615,1.003400206565857,
169386,0.014491481706500053,0.0028646825812757015,1.0017435550689697,
169396,-0.03421315178275108,-0.0067279404029250145,1.0083037614822388,
169406,-0.015470912680029869,0.057134468108415604,1.0467101335525513,
169416,-0.011989949271082878,0.04488770291209221,0.9795713424682617,
169426,0.005641058087348938,-0.04560215026140213,1.0069390535354614,
169436,-0.012576745823025703,0.0642518624663353,1.0015138387680054,
169446,-0.019328702241182327,0.04934653639793396,1.010488748550415,
169456,0.0004969225847162306,0.06876184791326523,0.9684528112411499,
169466,0.055685531347990036,0.04858386516571045,1.0024116039276123,
169476,-0.00927004124969244,0.02281884104013443,1.0006154775619507,
169486,-0.019118405878543854,0.035077452659606934,1.0077648162841797,
169496,-0.003999866545200348,0.011982633732259274,0.9683778285980225,
169506,0.0029450757429003716,0.0035253940150141716,1.0091192722320557,
169516,-0.0106416717171669,0.024221092462539673,0.9959434866905212,
169526,-0.003105167532339692,0.030786436051130295,1.0008597373962402,
169536,0.014585454948246479,0.033855367451906204,0.975993275642395,
169546,-0.00526098208501935,-0.030941719189286232,1.0152244567871094,
169556,-0.025442617014050484,0.10788530111312866,1.0076172351837158,
169566,0.02480505406856537,0.06050838902592659,0.9600992798805237,
169576,0.015179169364273548,-0.0022742045111954212,0.9858304262161255,
169586,0.017716074362397194,-0.002736862516030669,1.000583291053772,
169596,-0.004501740448176861,0.003962807822972536,1.0091842412948608,
169606,-0.017807042226195335,-0.03804377093911171,1.0398335456848145,
169616,0.0046099028550088406,0.012186454609036446,1.007704734802246,
169626,-0.010617883875966072,0.023306822404265404,1.0173579454421997,
169636,-0.010294238105416298,0.04361945390701294,1.0108445882797241,
169646,-0.011000930331647396,0.03869399428367615,0.9965980052947998,
169656,0.03373068571090698,0.045003943145275116,0.996219277381897,
169666,0.013254603371024132,-0.028875920921564102,1.0326335430145264,
169676,-0.01915750466287136,0.004425734281539917,1.0258907079696655,
169686,0.02591952495276928,-0.01577604189515114,0.9671444296836853,
169696,-0.009616756811738014,0.01026594452559948,0.9949309229850769,
169706,0.011661922559142113,-0.006436115596443415,0.98888099193573,
169716,-0.005683572497218847,-0.0031714823562651873,1.012593388557434,
169726,-0.002044728258624673,0.0057630096562206745,0.99171382188797,
169736,0.0004164733982179314,0.013862589374184608,1.0000991821289062,
169746,-0.0015991873806342483,0.07143941521644592,1.0133259296417236,
169756,-0.003040747484192252,0.023644987493753433,1.000113606452942,
169766,-0.0037745011504739523,-0.003511163406074047,0.9897844791412354,
169776,0.009224070236086845,0.025078853592276573,0.9997390508651733,
169786,-0.004102444741874933,-0.03203371912240982,1.0010786056518555,
169796,-0.030598433688282967,0.06017552316188812,1.0274522304534912,
169806,0.023574942722916603,0.004329638555645943,0.9679336547851562,
169816,-0.005088162608444691,0.022493265569210052,1.0087919235229492,
169826,0.010118444450199604,0.027565373107790947,0.999226450920105,
169836,-0.010025533847510815,0.05213767662644386,0.9876890778541565,
169846,-0.005884948652237654,0.03307093679904938,1.0087950229644775,
169856,0.004399470053613186,-0.0027569541707634926,0.9874295592308044,
169866,0.010696511715650558,-0.020401449874043465,1.0170793533325195,
169876,0.001598999951966107,0.002813395345583558,1.0222100019454956,
169886,-0.03137795254588127,-0.032640181481838226,1.0346746444702148,
169896,-0.02440713718533516,0.06156747788190842,1.0141477584838867,
169906,0.045549359172582626,0.004136182367801666,0.9622278213500977,
169916,-0.0025595726910978556,0.026026541367173195,1.0173213481903076,
169926,-0.0048819370567798615,0.04080512002110481,1.0203123092651367,
169936,-0.02690635249018669,0.04903750121593475,1.003415822982788,
169946,0.009465650655329227,0.02244776114821434,0.9878624081611633,
169956,-0.007182055618613958,-0.00037655478809028864,0.9972601532936096,
169966,0.014799170196056366,0.005138752516359091,1.0347094535827637,
169976,0.015037688426673412,0.010535066947340965,1.0383800268173218,
169986,-0.02173706702888012,-0.017678938806056976,1.0726250410079956,
169996,-0.008596002124249935,0.01688217557966709,1.030168890953064,
170006,0.0030884293373674154,0.01275574415922165,0.9953100681304932,
170016,-0.004800728056579828,0.0014576568501070142,1.009483814239502,
170026,0.016704615205526352,0.024115242063999176,1.0092273950576782,
170036,0.015612136572599411,0.009589908644557,1.0112005472183228,
170046,0.025305846706032753,0.04471532255411148,1.0255591869354248,
170056,0.007293894421309233,-0.02138814516365528,1.0590064525604248,
170066,0.0027637092862278223,0.06185853108763695,1.034340739250183,
170076,0.025720695033669472,0.08600380271673203,1.0378484725952148,
170086,0.027843888849020004,-0.0035213616210967302,1.0642507076263428,
170096,0.0005993418744765222,0.04642847552895546,1.0324631929397583,
170106,0.017549466341733932,0.05341597646474838,1.078452229499817,
170116,-0.0031336743850260973,0.002154863905161619,1.063187599182129,
170126,-0.012314717285335064,0.001011069631204009,1.072285532951355,
170136,-0.0005981284775771201,0.012972971424460411,1.0976454019546509,
170146,-0.017506320029497147,0.0055918521247804165,1.0837290287017822,
170156,-0.0083432886749506,-0.0022907566744834185,1.079575538635254,
170166,-0.023038338869810104,-0.013973764143884182,1.0961148738861084,
170176,-0.018691979348659515,0.005763075780123472,1.1010066270828247,
170186,0.015604768879711628,0.04772672802209854,1.0981526374816895,
170196,-0.001523469341918826,0.004505331628024578,1.0880056619644165,
170206,0.005808108951896429,-0.010778520256280899,1.0859308242797852,
170216,-0.007081075105816126,0.04946298152208328,1.1255162954330444,
170226,-0.0045458488166332245,0.056602027267217636,1.1008943319320679,
170236,-0.0008162473677657545,0.022332031279802322,1.1090002059936523,
170246,-0.010914228856563568,0.026117082685232162,1.1265747547149658,
170256,-0.025689030066132545,0.06065046042203903,1.1203653812408447,
170266,-0.006156707648187876,0.03203471004962921,1.1261706352233887,
170276,0.020626230165362358,0.01488696038722992,1.11328125,
170286,-0.030779477208852768,-0.003196443896740675,1.1024731397628784,
170296,0.009729426354169846,0.01020714920014143,1.0995094776153564,
170306,0.007113306317478418,-0.008748351596295834,1.1270471811294556,
170316,-0.02166377194225788,0.028613483533263206,1.1211496591567993,
170326,-0.024619780480861664,0.008437687531113625,1.134706974029541,
170336,0.032130323350429535,0.00044164349674247205,1.1082266569137573,
170346,0.017346343025565147,0.041709281504154205,1.0989853143692017,
170356,-0.020306559279561043,0.04043547436594963,1.1252623796463013,
170366,-0.00015705713303759694,0.056789644062519073,1.1152620315551758,
170376,-0.005626954138278961,0.04567543789744377,1.1240254640579224,
170386,0.0005753182922489941,0.0004994245246052742,1.115614414215088,
170396,0.002696508541703224,-0.006941865663975477,1.1357942819595337,
170406,0.004977436736226082,0.03690207004547119,1.1022400856018066,
170416,-0.016124669462442398,0.03615451231598854,1.117547869682312,
170426,-0.012157310731709003,0.04879727214574814,1.1112959384918213,
170436,-0.010008198209106922,-0.01903573051095009,1.1353161334991455,
170446,0.00025500456104055047,-0.017496638000011444,1.114425539970398,
170456,-0.0016763672465458512,0.005082122050225735,1.092612624168396,
170466,-0.005591206252574921,0.01324218325316906,1.1056534051895142,
170476,-0.008381630294024944,0.004277618136256933,1.127182126045227,
170486,0.014445989392697811,0.013335427269339561,1.0715999603271484,
170496,-0.02669268287718296,0.0024189557880163193,1.0646350383758545,
170506,-0.02255675010383129,-0.0277398768812418,1.111035704612732,
170516,0.004076244309544563,0.0056294952519237995,1.073137640953064,
170526,-0.0060012321919202805,0.06637837737798691,1.0402106046676636,
170536,-0.006540014874190092,0.028175322338938713,1.108305811882019,
170546,-0.014217059127986431,0.019877683371305466,1.0736310482025146,
170556,-0.009996396489441395,0.05984292924404144,1.0406785011291504,
170566,-0.0023537769448012114,0.022143706679344177,1.0154850482940674,
170576,-0.009797404520213604,-0.016955699771642685,1.0295101404190063,
170586,-0.021142398938536644,0.04850392043590546,1.0175033807754517,
170596,0.007014177273958921,-0.013697091490030289,1.0217052698135376,
170606,-0.0009529023081995547,-0.006796073168516159,1.009789228439331,
170616,-0.0038411326240748167,0.015311523340642452,0.9911537170410156,
170626,-0.0036889505572617054,-0.015674617141485214,0.961263120174408,
170636,0.005730224773287773,0.020473537966609,0.9656428694725037,
170646,-0.014478782191872597,-0.007287763524800539,0.9938404560089111,
170656,-0.023275014013051987,0.00755023630335927,0.9705354571342468,
170666,-0.002325561363250017,0.021705949679017067,0.9606747031211853,
170676,0.0020523674320429564,0.019962839782238007,0.9384216666221619,
170686,0.0014424852561205626,-0.01537995133548975,0.9577752947807312,
170696,-0.007091788575053215,0.03179138898849487,0.929409384727478,
170706,0.002867587609216571,0.005652862135320902,0.9358722567558289,
170716,0.001030846033245325,0.056256864219903946,0.9349765181541443,
170726,0.020091693848371506,0.020670974627137184,0.9424274563789368,
170736,-0.0178312286734581,0.05222812667489052,0.9043812155723572,
170746,-0.0026386368554085493,0.0387999452650547,0.9321097135543823,
170756,-0.009248057380318642,0.05918673798441887,0.8936045169830322,
170766,-0.005334149580448866,0.011504558846354485,0.9386734366416931,
170776,-0.0058073257096111774,-0.0028005698695778847,0.9487698078155518,
170786,0.0004903663648292422,0.007457069121301174,0.9063344597816467,
170796,0.023553932085633278,-0.02182464860379696,0.8825961351394653,
170806,-0.01200130581855774,-0.026134008541703224,0.9283830523490906,
170816,-0.0005189712974242866,-0.027930712327361107,0.9182863831520081,
170826,-0.003776746103540063,0.027966903522610664,0.8787049651145935,
170836,0.0063099730759859085,0.044293150305747986,0.8332006931304932,
170846,0.0026184222660958767,0.03179909288883209,0.8788363337516785,
170856,-0.003109861398115754,0.036137357354164124,0.9023849964141846,
170866,0.0056363963522017,0.02792644128203392,0.8831685185432434,
170876,-0.009240731596946716,0.021771427243947983,0.8932842016220093,
170886,-0.017653722316026688,0.039583392441272736,0.9172720909118652,
170896,0.026400482282042503,-0.01622856594622135,0.8657623529434204,
170906,-0.029791906476020813,0.018051933497190475,0.865851104259491,
170916,-0.0017060713144019246,-0.015182183124125004,0.8939656615257263,
170926,-0.0063165221363306046,0.08533002436161041,0.9007891416549683,
170936,-0.019450534135103226,0.0510324127972126,0.8826093077659607,
170946,0.01689821481704712,0.005523027386516333,0.8909713625907898,
170956,0.011028187349438667,-0.010491685010492802,0.9281136393547058,
170966,0.013910635374486446,-0.004803449846804142,0.8976183533668518,
170976,-0.00859539769589901,0.012240955606102943,0.8615632653236389,
170986,-0.00745285814628005,-0.0020325600635260344,0.8908395171165466,
170996,-0.016429489478468895,-0.00205288571305573,0.9218544363975525,
171006,-0.013419369235634804,0.0033505246974527836,0.9142419099807739,
171016,-0.00916440598666668,0.011153806000947952,0.8975235819816589,
171026,-0.004152830224484205,-0.039085619151592255,0.9452161192893982,
171036,-0.023012693971395493,0.019768305122852325,0.950518786907196,
171046,-0.008943881839513779,-0.005977865308523178,0.9155863523483276,
171056,-0.0019169329898431897,0.00047579308738932014,0.9196740388870239,
171066,0.00529506104066968,0.01608474925160408,0.9077257513999939,
171076,-0.0012183182407170534,0.02960752509534359,0.9119011759757996,
171086,0.004602266941219568,0.05479922518134117,0.9298723936080933,
171096,-0.02548675611615181,0.06176087260246277,0.94209223985672,
171106,0.007704709190875292,0.03386468067765236,0.9236792325973511,
171116,-0.025268064811825752,0.0192523505538702,0.9150271415710449,
171126,0.017475729808211327,0.0022141612134873867,0.9495490789413452,
171136,-0.019559131935238838,0.06262298673391342,0.9210516810417175,
171146,-0.004783970769494772,0.0032923088874667883,0.8922675848007202,
171156,-0.002628130605444312,0.009526283480226994,0.9384851455688477,
171166,0.007023445330560207,0.013021020218729973,0.937669575214386,
171176,0.007729505654424429,0.002305727219209075,0.9301592707633972,
171186,0.001028417143970728,0.030934778973460197,0.9751759767532349,
171196,-0.008391208946704865,0.15009598433971405,0.9056558012962341,
171206,-0.005691887345165014,0.05502704530954361,0.9158408641815186,
171216,-0.010038233362138271,0.028496963903307915,0.9379531145095825,
171226,0.0351288765668869,0.0019763282034546137,0.9468279480934143,
171236,-0.013166612945497036,0.09408816695213318,0.9120753407478333,
171246,-0.015188871882855892,0.06705066561698914,0.9524699449539185,
171256,9.7782896773424e-05,0.036294445395469666,0.9428234100341797,
171266,-0.005493870936334133,-0.010581687092781067,0.9535268545150757,
171276,0.00024027578183449805,-0.011009374633431435,0.9583451151847839,
171286,0.020063133910298347,0.04905075952410698,0.9626849889755249,
171296,0.022230757400393486,-0.020962323993444443,0.9415793418884277,
171306,-0.025006212294101715,-0.04141010716557503,0.9964703917503357,
171316,0.01094531174749136,0.023922234773635864,0.9699368476867676,
171326,-0.024379514157772064,0.02529507875442505,0.9319925308227539,
171336,-0.019228020682930946,0.0017341391649097204,1.0169541835784912,
171346,0.0016438484890386462,0.016384027898311615,0.984477698802948,
171356,-0.005326895974576473,0.004361765459179878,0.9684643149375916,
171366,-0.01478328462690115,0.011394841596484184,0.9660136103630066,
171376,-0.0016600093804299831,0.03662588447332382,0.9442160129547119,
171386,-0.020996250212192535,0.006138285622000694,0.9709502458572388,
171396,0.017329886555671692,0.02299502119421959,0.9673172235488892,
171406,0.011590952053666115,0.00624299980700016,0.9422334432601929,
171416,0.009774783626198769,-0.015565336681902409,0.9975387454032898,
171426,0.02807162143290043,0.0728992223739624,0.9637699723243713,
171436,0.02909419685602188,0.008771450258791447,0.9817025661468506,
171446,-0.012060732580721378,-0.0041381861083209515,1.0188082456588745,
171456,-0.0021559838205575943,0.021701235324144363,0.9941184520721436,
171466,0.002551045035943389,0.022279998287558556,0.9903523325920105,
171476,-0.0076319011859595776,0.032568275928497314,1.0149447917938232,
171486,-0.009853294119238853,0.014133150689303875,1.0156306028366089,
171496,0.0021377229131758213,0.028016550466418266,1.0074982643127441,
171506,-0.0053887199610471725,0.0355844721198082,1.0002225637435913,
171516,-0.022970473393797874,0.03508689999580383,1.0471382141113281,
171526,0.01336190290749073,0.044942811131477356,1.001721739768982,
171536,0.005712279584258795,-0.011370435357093811,0.967535138130188,
171546,0.0022079686168581247,-0.03656347468495369,1.0340951681137085,
171556,-0.01722373627126217,0.05925387144088745,1.0136481523513794,
171566,-0.013832006603479385,0.05744117498397827,1.0247219800949097,
171576,-0.010939111933112144,0.05506212264299393,0.9737222790718079,
171586,0.01876050978899002,-0.0301816426217556,1.0216844081878662,
171596,-0.012381835840642452,0.05274159461259842,1.0070024728775024,
171606,-0.017497653141617775,0.10287793725728989,1.0264723300933838,
171616,-0.02653646655380726,0.08627527952194214,0.9683924913406372,
171626,0.022646723315119743,0.058759257197380066,0.9968277812004089,
171636,0.017892980948090553,-0.039026711136102676,1.0406787395477295,
171646,-0.007090981118381023,0.0702100396156311,1.0044525861740112,
171656,-0.023805992677807808,0.03930167481303215,0.9927338361740112,
171666,0.015921056270599365,0.06749923527240753,0.997557520866394,
171676,0.019440313801169395,0.013461190275847912,1.0377141237258911,
171686,-0.008876188658177853,0.05118473246693611,1.011043667793274,
171696,-0.011450813151896,0.014658823609352112,0.9864241480827332,
171706,-0.024241244420409203,0.01620897650718689,0.9898580312728882,
171716,0.02888490818440914,-0.00361317559145391,0.9824194312095642,
171726,-0.03310944139957428,-0.014003357850015163,1.037933111190796,
171736,-0.008034499362111092,0.036182940006256104,1.0210001468658447,
171746,0.001616719993762672,0.031705208122730255,1.0047193765640259,
171756,-0.007908887229859829,-0.0035904438700526953,0.9982647895812988,
171766,-0.0051920791156589985,-0.004249362740665674,1.0020477771759033,
171776,-0.01171082817018032,0.004336405545473099,1.0243582725524902,
171786,-0.004504302982240915,0.0055825854651629925,1.012648105621338,
171796,-0.006929848343133926,0.0035147187300026417,1.0009253025054932,
171806,0.003619702998548746,0.005974465515464544,0.9929019808769226,
171816,0.00640677148476243,-0.004561948589980602,0.9842660427093506,
171826,-0.012802626937627792,-0.03922339528799057,1.033441185951233,
171836,-0.012144992128014565,0.030205465853214264,0.9656727313995361,
171846,0.018964068964123726,0.014386886730790138,0.9891843795776367,
171856,0.002856013597920537,0.007567379157990217,1.012747049331665,
171866,-0.0020634967368096113,0.01212841272354126,1.0001119375228882,
171876,-0.005564798600971699,0.013352730311453342,0.9886188507080078,
171886,0.031269531697034836,0.008828256279230118,0.9751508831977844,
171896,-0.0029348840471357107,0.008670917712152004,1.0033420324325562,
171906,-0.009416783228516579,0.029715677723288536,1.0159213542938232,
171916,-0.016816100105643272,0.008877710439264774,1.0240460634231567,
171926,7.4536852480378e-05,0.050643544644117355,0.9903322458267212,
171936,0.05390122905373573,-0.028097422793507576,0.9710692763328552,
171946,-0.022257482632994652,0.012905191630125046,1.014312744140625,
171956,-0.01878385804593563,0.005552312824875116,1.0050803422927856,
171966,-0.00436593871563673,0.060749225318431854,0.9830535650253296,
171976,0.02054167538881302,0.02751646190881729,1.008945345878601,
171986,-0.006267279852181673,0.028238095343112946,1.0011433362960815,
171996,0.000241418179939501,-0.004777943715453148,1.0068141222000122,
172006,-0.0076095242984592915,0.009253782220184803,0.9984170794487,
172016,0.0019598123617470264,-0.014726290479302406,0.9965500831604004,
172026,-0.009089093655347824,0.027205415070056915,1.0347403287887573,
172036,0.021527335047721863,-0.0011783778900280595,0.9959064722061157,
172046,0.002863639499992132,-0.0004124096594750881,0.9899419546127319,
172056,0.004870584700256586,0.006635920610278845,0.9848765730857849,
172066,-0.012378774583339691,0.007810475770384073,0.9952760934829712,
172076,-0.024645619094371796,-0.008294275030493736,1.0106946229934692,
172086,0.0001993032929021865,0.0013153007021173835,0.9773082733154297,
172096,0.012394251301884651,-0.0030158846639096737,0.9958627223968506,
172106,-0.016232239082455635,0.013032232411205769,0.976839005947113,
172116,-0.0059036496095359325,0.020385796204209328,1.001224160194397,
172126,-0.003924807533621788,0.05262531712651253,0.9891762137413025,
172136,0.014192286878824234,0.024397296831011772,0.9873369932174683,
172146,-0.0009434908861294389,-0.0020598238334059715,1.001992106437683,
172156,-0.01378726027905941,0.07348174601793289,0.9792858958244324,
172166,0.0174533873796463,0.031301792711019516,0.9719834923744202,
172176,-0.02729126065969467,0.03506038710474968,1.0154345035552979,
172186,-0.015258279629051685,0.021734124049544334,0.9939473867416382,
172196,0.010218781419098377,0.08907632529735565,1.0066168308258057,
172206,0.0032383580692112446,0.050610046833753586,0.973373293876648,
172216,-0.015090194530785084,0.02294076792895794,1.0135304927825928,
172226,0.005220068618655205,0.004008476622402668,1.0152432918548584,
172236,0.001789558446034789,0.022619055584073067,0.9789758920669556,
172246,0.0006042597815394402,-0.017191872000694275,0.9983060359954834,
172256,0.0003985508519690484,0.04435116425156593,1.0190885066986084,
172266,0.006994451861828566,0.007725721690803766,0.9862229228019714,
172276,-0.02410813421010971,-0.012852612882852554,1.006925344467163,
172286,-0.007803137879818678,0.013928697444498539,0.9880507588386536,
172296,-0.01770678162574768,0.022007521241903305,1.0177279710769653,
172306,0.02920372225344181,0.06208477541804314,0.9717038869857788,
172316,0.030954543501138687,0.007209324277937412,0.9513604640960693,
172326,0.01608038693666458,-0.03480742871761322,1.009644865989685,
172336,-0.001257695141248405,0.09823010116815567,0.9905667304992676,
172346,0.0019605313427746296,0.03396589681506157,0.9745094776153564,
172356,0.007532140705734491,0.04283900558948517,0.9999183416366577,
172366,-0.000989945256151259,0.022843945771455765,1.0178989171981812,
172376,-0.03542187437415123,0.04351145029067993,0.9939092397689819,
172386,0.02344847097992897,0.0732899010181427,0.9661223888397217,
172396,-0.02758149616420269,0.012553811073303223,1.034644603729248,
172406,0.006845650728791952,-0.008684301748871803,0.9715495109558105,
172416,-9.42172555369325e-05,0.011023729108273983,0.9582138657569885,
172426,0.00403709476813674,-0.010933754965662956,1.001617670059204,
172436,0.003583185840398073,0.05855133384466171,1.0079841613769531,
172446,0.0006273140897974372,0.050147127360105515,0.9907720685005188,
172456,-0.010680630803108215,0.001113417441956699,0.9901319146156311,
172466,-0.007950632832944393,-0.011617794632911682,1.0021209716796875,
172476,-0.011646512895822525,0.046152081340551376,1.0017294883728027,
172486,0.011784392409026623,0.05003034695982933,0.9810057282447815,
172496,0.0013817555736750364,0.02775752730667591,1.0407582521438599,
172506,-0.03744624927639961,0.008997983299195766,1.0201276540756226,
172516,-3.3468022593297064e-05,0.05560721829533577,0.9666965007781982,
172526,0.01577514223754406,0.0061356970109045506,0.9841219186782837,
172536,-0.04260961711406708,0.06684620678424835,0.9807756543159485,
172546,0.00976933166384697,0.014032727107405663,0.9696937799453735,
172556,0.002976910211145878,0.013506611809134483,0.9986875653266907,
172566,0.007425942458212376,-0.02384944073855877,1.0028282403945923,
172576,-0.004668768960982561,0.01047311071306467,0.999286949634552,
172586,0.002830927260220051,0.0075020319782197475,0.9923727512359619,
172596,-0.013904580846428871,-5.319149568094872e-05,1.0258266925811768,
172606,-0.013434133492410183,0.011342937126755714,1.004485011100769,
172616,0.011114467866718769,0.01382568757981062,0.9895860552787781,
172626,-0.010836657136678696,0.019015714526176453,1.0104255676269531,
172636,-0.001873298198916018,0.019754508510231972,1.0206040143966675,
172646,-0.0006935702404007316,0.009956964291632175,0.9915947914123535,
172656,0.007389294449239969,-0.0031967710237950087,0.989772617816925,
172666,0.0015293407486751676,-0.013309893198311329,0.9986186027526855,
172676,-0.03579869493842125,0.017231684178113937,1.003132939338684,
172686,0.0020778789184987545,0.029091523960232735,0.9714629650115967,
172696,0.002568488474935293,0.07381980121135712,1.0165414810180664,
172706,-0.019579535350203514,0.03863804414868355,1.0301448106765747,
172716,-0.008968297392129898,0.0306559931486845,0.9813986420631409,
172726,0.006851509213447571,-0.0067828064784407616,0.9926210045814514,
172736,-0.01308398600667715,0.07161130011081696,0.9675050377845764,
172746,-0.003508812515065074,0.014540573582053185,0.9814745187759399,
172756,-0.0019423433113843203,0.01739724725484848,0.9665547609329224,
172766,0.0013177404180169106,0.0031733133364468813,0.9615383744239807,
172776,-0.02148708887398243,-0.017248284071683884,1.0088289976119995,
172786,0.0019440955948084593,-0.0007436459418386221,0.9880289435386658,
172796,0.0025091469287872314,-0.01523665152490139,1.0124893188476562,
172806,-0.007528698071837425,0.07260503619909286,1.0115256309509277,
172816,0.0015196694293990731,0.03806164488196373,0.9739482402801514,
172826,0.001442619482986629,0.0017749604303389788,0.9904506802558899,
172836,0.00348926754668355,0.03268211707472801,0.9990816712379456,
172846,-0.007130172103643417,0.007326286286115646,0.9943286180496216,
172856,0.01814918778836727,0.027374811470508575,0.9916269779205322,
172866,0.017940066754817963,-0.008686671033501625,1.0149242877960205,
172876,-0.027161739766597748,-0.009690414182841778,0.9801192879676819,
172886,-0.0026624812744557858,0.03787080943584442,0.9745095372200012,
172896,-0.0040043373592197895,0.0832931399345398,1.0147829055786133,
172906,-0.0365757942199707,0.06332620233297348,0.9716580510139465,
172916,0.02712486870586872,0.06186910346150398,0.9828495383262634,
172926,-0.022298676893115044,0.013871320523321629,1.0215606689453125,
172936,0.013665888458490372,0.11181138455867767,0.9948868751525879,
172946,-0.012530849315226078,0.04903639107942581,0.961506724357605,
172956,-0.0030725738033652306,0.03930727392435074,0.9956313967704773,
172966,0.005908246152102947,0.02694728970527649,0.9753690958023071,
172976,0.021727221086621284,-0.013808784075081348,0.9770395755767822,
172986,0.0026494425255805254,-0.001466155517846346,1.0068970918655396,
172996,-0.020883213728666306,-0.002654112409800291,1.004554271697998,
173006,0.003995170816779137,0.058183204382658005,0.9861217737197876,
173016,0.016970757395029068,0.023453379049897194,1.0002923011779785,
173026,-0.02515348419547081,-0.004707441199570894,1.0202291011810303,
173036,0.02854037657380104,0.01318375300616026,1.0132803916931152,
173046,-0.0032248536590486765,0.03877926990389824,0.9911801815032959,
173056,-0.007005356252193451,0.034324463456869125,1.0133284330368042,
173066,-0.008862098678946495,0.017361348494887352,0.9939618110656738,
173076,0.00173744757194072,0.018436545506119728,0.9967731237411499,
173086,-0.03258839622139931,0.004690262023359537,1.0229146480560303,
173096,-0.01431387197226286,0.00999478716403246,1.0168139934539795,
173106,-0.00881404522806406,0.05813376232981682,0.9876840710639954,
173116,0.005115454085171223,0.012779670767486095,0.9973717331886292,
173126,-0.009872733615338802,0.011680892668664455,1.0200834274291992,
173136,-0.013199420645833015,-0.02671433426439762,1.0359753370285034,
173146,0.009387452155351639,0.022425346076488495,1.0048551559448242,
173156,0.019477156922221184,0.006476444657891989,1.009790062904358,
173166,-0.013413095846772194,0.04458644241094589,1.0328741073608398,
173176,0.00918606761842966,0.00199497421272099,1.0461069345474243,
173186,0.019305255264043808,0.02713414467871189,1.0042707920074463,
173196,0.025326384231448174,0.001973749604076147,0.9978078007698059,
173206,-0.014183166436851025,0.06940249353647232,1.0284379720687866,
173216,-0.018557945266366005,0.04251883178949356,1.0229519605636597,
173226,-0.010366258211433887,0.06020519882440567,1.0157957077026367,
173236,0.03787568584084511,0.039473842829465866,1.0311107635498047,
173246,-0.009268565103411674,-0.00919535756111145,1.0509699583053589,
173256,0.012692288495600224,0.01655898429453373,0.997360348701477,
173266,0.04005740210413933,-0.01773613691329956,1.002693772315979,
173276,-0.026946140453219414,0.049641333520412445,1.0300899744033813,
173286,-0.01490059681236744,0.05675386264920235,1.0294848680496216,
173296,-0.005600327625870705,0.03908536583185196,1.0236841440200806,
173306,0.008770056068897247,0.027892066165804863,0.9972671866416931,
173316,-0.007261351682245731,-0.010750720277428627,1.021828532218933,
173326,-0.020217319950461388,0.012837346643209457,1.002327799797058,
173336,-0.0013707596808671951,0.008149606175720692,0.9928695559501648,
173346,-0.005973359104245901,0.09783324599266052,0.996115505695343,
173356,-0.008587860502302647,0.026430433616042137,1.0234944820404053,
173366,0.0011215419508516788,0.025657815858721733,0.996667206287384,
173376,0.05349837988615036,0.02029850147664547,0.9962786436080933,
173386,0.0058119036257267,0.0755457952618599,1.002403974533081,
173396,-0.0014848074642941356,0.06199508160352707,0.9777118563652039,
173406,-0.030901066958904266,0.05247467756271362,0.9978241920471191,
173416,0.005615476984530687,0.023094963282346725,1.0029287338256836,
173426,-0.017859751358628273,-0.013150244951248169,1.0170695781707764,
173436,0.0033292919397354126,-0.008356835693120956,0.9900369644165039,
173446,-0.011182204820215702,0.020859288051724434,0.9707784056663513,
173456,-0.0006708123837597668,0.0043846494518220425,1.004522681236267,
173466,0.0029191768262535334,0.00438630860298872,1.0032533407211304,
173476,-0.01953166164457798,0.008205297403037548,1.0058850049972534,
173486,0.008813440799713135,-0.005492069758474827,0.969256579875946,
173496,-0.039674706757068634,0.012640237808227539,1.0160956382751465,
173506,-0.017680486664175987,-0.011212244629859924,0.9983661770820618,
173516,0.016200225800275803,0.03277837112545967,0.9750558733940125,
173526,0.026088323444128036,-0.02240612916648388,1.0139195919036865,
173536,-0.0064407470636069775,0.02018517628312111,0.9956597685813904,
173546,0.013453320600092411,-0.019768383353948593,0.9814439415931702,
173556,-0.009151726961135864,-0.006569006480276585,0.9939132332801819,
173566,0.003081243485212326,0.0008975490927696228,0.98525071144104,
173576,0.009568188339471817,-0.02829962596297264,0.9913596510887146,
173586,-0.005792546551674604,-0.00906196516007185,0.991191029548645,
173596,0.008367548696696758,-0.022778574377298355,0.9824244379997253,
173606,-0.03607993572950363,0.04318178445100784,0.9703660607337952,
173616,-0.019392475485801697,0.03413829952478409,0.9665250778198242,
173626,-0.014907662756741047,0.09753217548131943,0.9809852838516235,
173636,-0.009148132055997849,0.0026174194645136595,0.9868850708007812,
173646,-0.02655751258134842,0.02855469100177288,0.9943908452987671,
173656,0.0022413204424083233,-0.014689736999571323,0.9910928010940552,
173666,-0.010652885772287846,-0.016169918701052666,1.0019701719284058,
173676,0.003008246421813965,-0.004959073383361101,0.97569340467453,
173686,0.0026969918981194496,-0.010072270408272743,0.9809749126434326,
173696,-0.005562201142311096,0.023894011974334717,0.9672339558601379,
173706,0.006421428639441729,-0.05036747828125954,1.0054491758346558,
173716,-0.03088117204606533,0.02415519207715988,0.993337094783783,
173726,0.021361136808991432,0.009160364046692848,0.9745703339576721,
173736,-0.04491189122200012,0.043828580528497696,1.0148866176605225,
173746,0.02496880479156971,-0.025771483778953552,0.9685348868370056,
173756,-0.011481677182018757,-0.0031218361109495163,0.9931616187095642,
173766,-0.00306533882394433,-0.011709664948284626,0.9969804883003235,
173776,0.007126737851649523,-0.008132712915539742,1.0038350820541382,
173786,0.00429077772423625,-0.006921830121427774,0.9954156875610352,
173796,-0.016403213143348694,-0.024949613958597183,1.0233560800552368,
173806,0.0006909932126291096,0.04233638569712639,0.99444580078125,
173816,-0.003980263136327267,-0.01894284039735794,0.9993668794631958,
173826,-0.014778179116547108,0.006164027377963066,1.00388503074646,
173836,0.0391743928194046,-0.022174622863531113,0.977222204208374,
173846,-0.033572036772966385,0.029262997210025787,1.006473183631897,
173856,-0.01276281476020813,0.01310152281075716,0.9980828762054443,
173866,0.007195774465799332,0.040475405752658844,1.0172563791275024,
173876,-0.011728684417903423,0.02095383033156395,1.0142040252685547,
173886,-0.013594374991953373,0.012729895301163197,1.0234752893447876,
173896,-0.0008530378108844161,0.024302387610077858,0.9942101240158081,
173906,-0.0061497194692492485,-0.025026800110936165,1.0275055170059204,
173916,0.004982177633792162,0.017155367881059647,1.0118464231491089,
173926,0.023510798811912537,-0.027813751250505447,1.0006651878356934,
173936,-0.025813136249780655,0.0037624980323016644,1.017141580581665,
173946,0.0069198296405375,-0.004252063576132059,0.9883282780647278,
173956,0.0006726651918143034,0.037490058690309525,1.0049229860305786,
173966,-0.008299481123685837,0.04482506588101387,1.0152674913406372,
173976,0.0017818617634475231,0.09589999914169312,0.9927617311477661,
173986,0.005261200480163097,0.05156676843762398,1.0145593881607056,
173996,-0.007287235464900732,0.022298898547887802,1.0272610187530518,
174006,0.012935789301991463,0.010563733987510204,1.0214920043945312,
174016,0.010568086057901382,0.0035956024657934904,1.0000211000442505,
174026,-0.021758314222097397,-0.005411699879914522,0.9965899586677551,
174036,-0.0019161157542839646,0.014174777083098888,0.9945822358131409,
174046,-0.020592980086803436,0.0215370561927557,0.9436171650886536,
174056,-0.005838453304022551,0.07668772339820862,0.9554787278175354,
174066,-0.01300914864987135,0.08321473002433777,1.0122431516647339,
174076,-0.015385229140520096,0.08359894156455994,0.9732924103736877,
174086,0.004153951071202755,0.061723820865154266,0.9869658350944519,
174096,-0.02293861098587513,0.03625014051795006,0.9949650764465332,
174106,0.049570269882678986,0.04954574629664421,0.994569718837738,
174116,0.008942453190684319,0.027757877483963966,0.9912355542182922,
174126,0.004280819557607174,0.046012621372938156,0.9970061182975769,
174136,-0.003886261023581028,0.04849625751376152,0.9817941188812256,
174146,-0.013839979656040668,-0.039268042892217636,0.9917066693305969,
174156,-0.005956048145890236,-0.02326940931379795,0.9999804496765137,
174166,0.013044939376413822,0.0024352145846933126,0.9847645163536072,
174176,0.007269376888871193,-0.02140156738460064,0.9920004606246948,
174186,-0.016893163323402405,-0.01785985194146633,0.9741184115409851,
174196,0.017480971291661263,-0.03739779442548752,0.9837270975112915,
174206,-0.01295793429017067,0.019968844950199127,1.0040920972824097,
174216,0.010827685706317425,-0.014518462121486664,0.9928464889526367,
174226,-0.013606607913970947,0.0308292917907238,0.9990189075469971,
174236,-0.004041611682623625,0.001165967434644699,1.0001168251037598,
174246,-0.009322870522737503,0.07396464049816132,0.9910483956336975,
174256,-0.022881239652633667,0.03486570343375206,1.0008349418640137,
174266,-0.004354284610599279,0.01276090182363987,0.9872111678123474,
174276,-0.015426741912961006,-0.011939369142055511,1.0206106901168823,
174286,-0.0012918149586766958,-0.006649403367191553,0.9932070970535278,
174296,-0.010007048957049847,-0.010105456225574017,1.0145343542099,
174306,-0.014404010958969593,-0.01568634621798992,1.0148274898529053,
174316,0.008103574626147747,0.04078309237957001,0.9819406867027283,
174326,0.004414226394146681,0.00022904945944901556,0.9933372735977173,
174336,-0.028223726898431778,0.0564519464969635,0.9856346845626831,
174346,0.007629582192748785,-0.015919949859380722,0.985963761806488,
174356,-0.005388255231082439,-0.013705345802009106,1.0065255165100098,
174366,0.004800164606422186,-0.008463290520012379,1.0004832744598389,
174376,0.0023606596514582634,0.0030774418264627457,0.9926900863647461,
174386,-0.00318284728564322,-0.01039439719170332,0.9997438788414001,
174396,0.006641443353146315,-0.011611596681177616,0.977162778377533,
174406,-0.014367524534463882,-0.0022233761847019196,1.0168228149414062,
174416,-0.010983463376760483,-0.00831544492393732,0.9904999136924744,
174426,0.003528109285980463,0.014119128696620464,0.9903318881988525,
174436,-0.002838770393282175,-0.0036718768533319235,1.0101933479309082,
174446,-0.043701060116291046,0.052827950567007065,0.9916840195655823,
174456,-0.00874190591275692,0.04128433018922806,0.981050968170166,
174466,0.00023877866624388844,0.04299353063106537,1.010354995727539,
174476,-0.013779549859464169,0.014583675190806389,1.0308723449707031,
174486,-0.004746070131659508,0.01727057807147503,1.0179659128189087,
174496,0.002103978767991066,0.015755638480186462,1.0261378288269043,
174506,0.003219909965991974,-0.011419916525483131,1.001361608505249,
174516,-0.008036215789616108,0.0170674379914999,1.0092017650604248,
174526,0.0196672473102808,-0.01390763744711876,1.0192838907241821,
174536,-0.023318184539675713,0.0019710813648998737,1.0365524291992188,
174546,0.030036497861146927,-0.00829100701957941,0.9845681190490723,
174556,-0.0036171157844364643,0.051151957362890244,1.005794644355774,
174566,-0.008496702648699284,0.07209188491106033,1.0275431871414185,
174576,-0.0070878625847399235,0.07131963223218918,1.0220868587493896,
174586,0.0231335312128067,0.017492951825261116,1.0223749876022339,
174596,-0.0061557358130812645,-0.001242258120328188,1.031506061553955,
174606,-0.005569530185312033,0.012550439685583115,0.9898852705955505,
174616,0.007261660881340504,-0.004613110329955816,1.0350185632705688,
174626,-0.011426198296248913,0.01065569743514061,1.0170780420303345,
174636,0.0027217112947255373,0.006667709443718195,0.9914625883102417,
174646,-0.009866113774478436,0.016489118337631226,0.9983685612678528,
174656,-0.014533818699419498,0.03335071727633476,1.027842402458191,
174666,-0.011871165595948696,0.03790710121393204,1.0064128637313843,
174676,0.017144734039902687,0.013437232002615929,1.0008273124694824,
174686,-0.014885993674397469,0.011409245431423187,1.028219223022461,
174696,0.027866611257195473,0.011646016500890255,0.9744160175323486,
174706,-0.02264225482940674,0.021216483786702156,1.0024691820144653,
174716,0.014509573578834534,-0.01020384393632412,0.962183952331543,
174726,-0.004050189629197121,-0.0039345030672848225,0.9892529845237732,
174736,-0.002090919530019164,-0.0008332512225024402,0.9844364523887634,
174746,-0.02068158984184265,0.0019449692917987704,0.990022599697113,
174756,-0.002950692316517234,0.003486211644485593,0.9810788035392761,
174766,0.0058967177756130695,-0.03334169462323189,0.9933103919029236,
174776,-0.013133762404322624,0.030773943290114403,0.9988530874252319,
174786,-0.0023714222479611635,0.045853614807128906,0.9921636581420898,
174796,-0.034868448972702026,0.03784479945898056,1.015504240989685,
174806,-0.001375459018163383,0.006162025034427643,0.9918805956840515,
174816,-0.019663503393530846,0.040376968681812286,0.9492170810699463,
174826,0.021824127063155174,0.015555650927126408,0.9988579750061035,
174836,-0.009561890736222267,0.01658804714679718,1.0170691013336182,
174846,-0.0007576517527922988,-0.023105470463633537,0.9858457446098328,
174856,0.014337189495563507,0.00030001296545378864,0.9899265170097351,
174866,-0.03565601259469986,-0.007336422801017761,1.0048749446868896,
174876,-0.02136293798685074,-0.026384461671113968,0.9872745871543884,
174886,0.005917372647672892,0.019121544435620308,0.9939862489700317,
174896,-0.0051370542496442795,-0.010819654911756516,1.0228711366653442,
174906,0.0040918197482824326,0.07852013409137726,0.9686731696128845,
174916,0.007553646806627512,-0.008527729660272598,1.012089729309082,
174926,-0.017659582197666168,0.03494647517800331,0.9885125160217285,
174936,0.01668047532439232,0.004489224404096603,0.9869962930679321,
174946,-0.024111593142151833,-0.004813393112272024,1.0189534425735474,
174956,0.00030127790523692966,-0.008010365068912506,0.9880396723747253,
174966,0.003907861653715372,-0.014027700759470463,0.9887189269065857,
174976,-0.0007851191330701113,-0.0008207935024984181,0.9882238507270813,
174986,0.02281029149889946,0.012803848832845688,0.9703212976455688,
174996,-0.029637249186635017,0.04391375184059143,1.0107455253601074,
175006,0.01615758426487446,-0.009403154253959656,0.9720708727836609,
175016,-0.007528644986450672,0.037865057587623596,0.9951879978179932,
175026,-0.008769458159804344,0.008417999371886253,0.990090548992157,
175036,-0.0007809755043126643,0.05549841746687889,0.9875072240829468,
175046,0.03763158991932869,0.03942471370100975,1.022353172302246,
175056,-0.0008183072204701602,0.048674389719963074,1.0063865184783936,
175066,0.02305479533970356,0.03175555542111397,1.0028095245361328,
175076,0.014066413976252079,0.0123522924259305,0.9999493360519409,
175086,0.00023065824643708766,0.003932798281311989,0.9943668246269226,
175096,0.005791894160211086,0.03612159565091133,1.0049138069152832,
175106,-0.0016339697176590562,0.04638611152768135,0.9770250916481018,
175116,-0.008490486070513725,0.00569977518171072,1.0103709697723389,
175126,0.025841275230050087,0.07538273930549622,0.988502562046051,
175136,-0.005756567697972059,0.019705116748809814,1.0157607793807983,
175146,0.01008615829050541,0.04113621264696121,0.9913390874862671,
175156,0.02423090487718582,0.041357845067977905,1.0015828609466553,
175166,-0.017715316265821457,0.07024814188480377,0.9924681782722473,
175176,0.028737584128975868,0.02033235691487789,0.9704448580741882,
175186,0.01461710687726736,-0.00021066656336188316,0.9947474002838135,
175196,0.026925109326839447,-0.0028320951387286186,0.9600014090538025,
175206,-0.004634706769138575,0.0010503795929253101,0.9881752133369446,
175216,-0.005067000165581703,-0.011460365727543831,0.9998137354850769,
175226,-0.003965154755860567,0.02029787003993988,0.9844722151756287,
175236,-0.004592517856508493,0.012373674660921097,0.986617922782898,
175246,-0.012128003872931004,-0.0003593331784941256,1.0193580389022827,
175256,-0.005505671259015799,-0.0015050496440380812,1.0106003284454346,
175266,0.024752533063292503,0.002245665295049548,0.9901837110519409,
175276,-0.03029721789062023,0.031925268471241,1.0223329067230225,
175286,0.003274326678365469,0.001360951573587954,0.9937188029289246,
175296,0.004658746998757124,0.017054378986358643,1.0047420263290405,
175306,0.006867062766104937,0.01774430461227894,1.0256034135818481,
175316,-0.030876383185386658,0.048030585050582886,0.9698796272277832,
175326,0.005861346144229174,0.07856158167123795,0.9818865060806274,
175336,0.002996311290189624,0.039615143090486526,0.9997416734695435,
175346,-0.005594972055405378,0.015131681226193905,1.0171746015548706,
175356,0.012580795213580132,0.007818534970283508,0.9879809617996216,
175366,0.017108963802456856,-0.016319897025823593,1.0090432167053223,
175376,0.014952683821320534,0.02371213398873806,1.0163769721984863,
175386,-0.013555948622524738,-0.014531760476529598,1.034121036529541,
175396,-0.013151023536920547,0.05275241285562515,1.0231804847717285,
175406,0.04601461812853813,0.005784104112535715,0.9826676845550537,
175416,-0.022115547209978104,-0.01492276694625616,1.0465779304504395,
175426,-0.017354313284158707,0.0038680837024003267,1.0358327627182007,
175436,-0.017613161355257034,0.005794713739305735,1.0084093809127808,
175446,0.021525030955672264,0.007946128956973553,0.9983562231063843,
175456,0.032694268971681595,-0.00832879263907671,1.0131314992904663,
175466,0.0038131985347718,0.029907390475273132,1.0509966611862183,
175476,-0.021608823910355568,0.013473596423864365,1.064987063407898,
175486,0.00632492545992136,0.050641417503356934,0.9943060874938965,
175496,0.016019213944673538,-0.0078049469739198685,0.997581422328949,
175506,-0.0019195110071450472,0.04752669483423233,1.0250710248947144,
175516,0.005066968966275454,-0.03862953558564186,1.0345053672790527,
175526,-0.011188461445271969,0.006004638038575649,1.0432257652282715,
175536,-0.006015845574438572,0.0004175951180513948,1.0195609331130981,
175546,-0.021728498861193657,0.00933920033276081,1.0244802236557007,
175556,-0.0025606341660022736,0.03682462498545647,1.0078520774841309,
175566,-0.005567592568695545,0.046353090554475784,1.0114487409591675,
175576,0.0018572753760963678,0.0034654508344829082,1.0346306562423706,
175586,-0.010953990742564201,0.0001212347560795024,0.9969921112060547,
175596,-0.00026997498935088515,0.002656036289408803,1.007051944732666,
175606,0.009790739975869656,0.0351453498005867,1.0126746892929077,
175616,-0.01786002516746521,0.011641869321465492,1.0607415437698364,
175626,-0.011938934214413166,0.018460888415575027,0.9971749782562256,
175636,0.019780965521931648,0.0035439040511846542,0.9772800207138062,
175646,0.01375384908169508,0.006816354114562273,0.9957929849624634,
175656,-0.014097955077886581,0.05537600442767143,1.0124895572662354,
175666,-0.027998825535178185,0.08055488765239716,1.0020580291748047,
175676,-0.0055183712393045425,0.0352657251060009,0.9995612502098083,
175686,-0.008317207917571068,-0.027115384116768837,1.0221542119979858,
175696,-0.007537065073847771,0.041276298463344574,0.9905532002449036,
175706,-0.0038313944824039936,0.006070088129490614,0.9696311950683594,
175716,-0.027700161561369896,-0.014292513020336628,1.04410982131958,
175726,0.010640622116625309,0.0014323338400572538,0.9715445637702942,
175736,0.01381614338606596,-0.0016738574486225843,0.9835472106933594,
175746,0.008442754857242107,0.03477348014712334,1.0075774192810059,
175756,-0.0037080978509038687,0.04498009383678436,1.0026674270629883,
175766,-0.01481698825955391,-0.002154681598767638,0.9729149341583252,
175776,0.019700264558196068,0.04015134274959564,0.9542800784111023,
175786,0.024227960035204887,-0.05023091658949852,0.9854008555412292,
175796,-0.026663988828659058,0.007132601458579302,1.0024467706680298,
175806,0.011053835041821003,-0.004041663371026516,0.9694386124610901,
175816,0.01949412375688553,0.04973236471414566,1.0031299591064453,
175826,0.027206936851143837,0.04908374696969986,1.0051363706588745,
175836,-0.0085342638194561,0.018811170011758804,0.9924028515815735,
175846,0.005739070009440184,-0.030913351103663445,0.9749045968055725,
175856,-0.01024025771766901,-0.02459973655641079,0.9955031871795654,
175866,-0.004043813794851303,0.0695221945643425,0.9519506096839905,
175876,3.112835474894382e-05,0.04923234507441521,0.9805330038070679,
175886,0.0028211975004523993,0.010432088747620583,0.9943159818649292,
175896,0.01892816834151745,0.08150865137577057,0.9918547868728638,
175906,0.014096168801188469,0.029552264139056206,1.0011552572250366,
175916,-0.006349182687699795,-0.01798189803957939,0.9743689298629761,
175926,0.024382181465625763,-0.001925814663991332,0.9458572268486023,
175936,-0.0020714246202260256,0.04573766514658928,1.0035443305969238,
175946,-0.0278154369443655,0.05164507031440735,0.9631505608558655,
175956,-0.007954000495374203,0.08314588665962219,0.9658665060997009,
175966,0.005425088573247194,-0.018475597724318504,1.0186508893966675,
175976,-0.009658904746174812,0.044390980154275894,1.0121818780899048,
175986,0.023606322705745697,0.028684532269835472,0.9319400787353516,
175996,-0.013692988082766533,0.006117463111877441,0.9400054812431335,
176006,0.0014204303734004498,-0.0036625450011342764,0.9914190173149109,
176016,-0.005073255393654108,-0.006772386841475964,0.9858370423316956,
176026,-0.0003692471655085683,-0.011001374572515488,0.9406265020370483,
176036,0.01014014147222042,-0.013926852494478226,0.9925391674041748,
176046,-0.015172884799540043,0.016980761662125587,0.9732141494750977,
176056,-0.025249015539884567,0.066885806620121,1.0042946338653564,
176066,-0.00697203679010272,0.04246174544095993,0.974675714969635,
176076,0.04660860076546669,0.09091011434793472,0.9765346050262451,
176086,0.03953712433576584,0.023808058351278305,0.9798933863639832,
176096,-0.038770515471696854,0.014173800125718117,1.0244102478027344,
176106,-0.0049844225868582726,-0.015087177976965904,0.9809491038322449,
176116,0.008026275783777237,0.026888301596045494,0.9957596659660339,
176126,0.034395258873701096,0.029846947640180588,1.0182229280471802,
176136,-0.0075189643539488316,0.022914471104741096,1.005476713180542,
176146,-0.003455917816609144,0.009376746602356434,1.0195939540863037,
176156,-0.004036242607980967,0.0016687274910509586,1.009416937828064,
176166,-0.002440432086586952,-0.032532550394535065,1.0078603029251099,
176176,0.027379386126995087,0.06645458936691284,1.006736159324646,
176186,0.060853708535432816,0.01077471673488617,0.9825806617736816,
176196,-0.0043047890067100525,-0.013989699073135853,1.012730598449707,
176206,0.005657523404806852,0.0646873190999031,1.060595989227295,
176216,-0.022964099422097206,0.027425341308116913,1.0456421375274658,
176226,-0.0254058800637722,-0.0190268661826849,0.9917662739753723,
176236,0.023777522146701813,0.04384440928697586,0.9768589735031128,
176246,0.043670669198036194,0.07523415237665176,1.0193678140640259,
176256,0.012581704184412956,0.011236006394028664,1.0487574338912964,
176266,-0.023014357313513756,0.04097156599164009,1.0001194477081299,
176276,0.005638708360493183,-0.016176827251911163,1.0235621929168701,
176286,-0.0024068679194897413,0.022950386628508568,1.0104212760925293,
176296,0.008399122394621372,0.016379861161112785,1.0082894563674927,
176306,0.0021623168140649796,0.018087327480316162,1.0304415225982666,
176316,0.007071424275636673,-0.00640174001455307,1.0177282094955444,
176326,-0.014333904720842838,-0.0015154097927734256,1.0176104307174683,
176336,0.0014785012463107705,0.030098240822553635,1.027235984802246,
176346,-0.014837349765002728,-0.003106123534962535,1.0039986371994019,
176356,0.01250726543366909,-0.010043713264167309,1.0324149131774902,
176366,0.02571517787873745,0.10497558861970901,0.9962839484214783,
176376,0.02718990668654442,0.028134576976299286,1.0272551774978638,
176386,0.012272385880351067,-0.05189685896039009,1.039729118347168,
176396,-0.01334384735673666,0.026688195765018463,1.0141953229904175,
176406,-0.02069028466939926,0.001404085662215948,1.0152987241744995,
176416,-0.002606190973892808,0.05818161368370056,0.9880564212799072,
176426,0.03115154802799225,0.05379103124141693,0.9996664524078369,
176436,-0.0059895883314311504,0.01603810489177704,0.9952864050865173,
176446,-0.0027416462544351816,-0.014752322807908058,0.9907315373420715,
176456,-0.018115472048521042,-0.0024409391917288303,1.0307457447052002,
