time,acc.x,acc.y,acc.z,
23436,0.0003293176996521652,0.0017221419839188457,0.9840952157974243,
23446,-0.006932263262569904,-0.0010962524684146047,0.9742220044136047,
23456,-0.004349968396127224,0.006128708366304636,0.9850727915763855,
23466,0.0012062102323397994,0.0020628732163459063,0.9865463376045227,
23476,-0.012561259791254997,0.0105285057798028,1.0100103616714478,
23486,0.0039033801294863224,-0.0020622608717530966,0.9515665173530579,
23496,0.0028124633245170116,-0.010489372536540031,0.9893231391906738,
23506,0.0037826464977115393,0.010462603531777859,0.9823680520057678,
23516,0.00793193094432354,0.013736765831708908,0.9811369180679321,
23526,-0.001041186973452568,-0.0023309134412556887,1.00456964969635,
23536,-0.00013713908265344799,0.005272241309285164,0.9689081311225891,
23546,0.000779444701038301,-0.011350530199706554,1.0047305822372437,
23556,-0.011904989369213581,0.03725861757993698,0.9854641556739807,
23566,-0.007966814562678337,-0.00015143575728870928,1.0036685466766357,
23576,-0.0070505691692233086,-0.005202594678848982,0.9970741271972656,
23586,-0.0018780389800667763,0.0034035355783998966,0.9787372946739197,
23596,-0.016620801761746407,0.017006564885377884,0.9955435395240784,
23606,-0.013077967800199986,0.02034667879343033,0.9790767431259155,
23616,-0.0019443104974925518,-0.011813480406999588,0.9787623882293701,
23626,-0.013662252575159073,0.007190748117864132,0.9873858690261841,
23636,-0.007594892755150795,0.014462140388786793,0.9707549810409546,
23646,0.0035190354101359844,0.009821990504860878,0.9802073836326599,
23656,0.008448618464171886,-0.006922702770680189,0.9764235615730286,
23666,-0.0006842173170298338,0.011005482636392117,0.9709509611129761,
23676,-0.006377281621098518,-0.004110889043658972,0.9943110942840576,
23686,-0.009245377033948898,-0.0036875957157462835,1.002152919769287,
23696,-0.011200743727385998,-0.0007097513880580664,1.0079822540283203,
23706,-0.009121110662817955,-0.0007559816003777087,0.9962166547775269,
23716,0.00810510478913784,0.0026816660538315773,0.9952622056007385,
23726,0.00010640409891493618,-0.017786230891942978,1.0000466108322144,
23736,-0.00375355314463377,0.009975657798349857,0.988415539264679,
23746,0.006815013941377401,-0.000915283162612468,1.0027425289154053,
23756,-0.009641113691031933,0.0023086722940206528,1.015793800354004,
23766,8.29911823529983e-06,0.012738733552396297,1.0089367628097534,
23776,-0.009024371393024921,0.009479416534304619,1.000705599784851,
23786,0.009315882809460163,0.021994298323988914,1.0083749294281006,
23796,0.008944744244217873,0.0067754825577139854,0.9909302592277527,
23806,-0.023504285141825676,-0.026326622813940048,0.9999414682388306,
23816,-0.006601476576179266,-0.003276631934568286,0.982191264629364,
23826,-0.009663974866271019,0.0033270029816776514,0.9800604581832886,
23836,0.0003300173848401755,0.010091367177665234,1.003298044204712,
23846,-0.001538660260848701,0.0013524341629818082,0.9646382331848145,
23856,0.003433590056374669,-0.013647963292896748,0.9940047264099121,
23866,-0.00669965660199523,0.03674018383026123,0.9929659962654114,
23876,-0.007143802009522915,-0.017377706244587898,0.9754957556724548,
23886,-0.019317733123898506,-0.006948032416403294,1.0389662981033325,
23896,0.0023490593302994967,-0.016508052125573158,1.0111051797866821,
23906,0.0001764816843206063,0.037823259830474854,1.0087502002716064,
23916,0.018887458369135857,0.058430470526218414,1.0076587200164795,
23926,-0.0012602275237441063,-0.004544958006590605,0.9430480003356934,
23936,0.018850823864340782,-0.022959042340517044,1.0055373907089233,
23946,-0.00814378447830677,0.014104322530329227,0.9928550124168396,
23956,-0.009749647229909897,0.013033252209424973,0.9914442896842957,
23966,-0.01012441236525774,-0.006462921388447285,1.0319218635559082,
23976,-0.0017082415288314223,-0.022983519360423088,1.0049625635147095,
23986,0.006067283917218447,0.044387754052877426,1.0147137641906738,
23996,0.00801489595323801,0.02955792099237442,1.0027310848236084,
24006,0.0019288997864350677,-0.01357672642916441,0.981430172920227,
24016,-0.0017914791824296117,-0.010491919703781605,1.003535270690918,
24026,-0.011792783625423908,0.017290672287344933,0.999941885471344,
24036,-0.010511117056012154,0.05188674479722977,1.011032223701477,
24046,-0.015978941693902016,-0.0009609193657524884,1.0002415180206299,
24056,-0.009374147281050682,-0.01981467939913273,1.0070099830627441,
24066,0.004726195242255926,0.017999591305851936,0.9892538785934448,
24076,-0.0064308219589293,-0.00405776547268033,0.9929568767547607,
24086,0.0008179836440831423,-0.0012455667601898313,0.9840722680091858,
24096,-0.004541837610304356,0.010734930634498596,0.9872543811798096,
24106,-0.019531257450580597,-0.0020430816803127527,1.011744737625122,
24116,-0.014087097719311714,0.017891211435198784,0.9647470712661743,
24126,-0.003919611219316721,0.007372147869318724,1.0031825304031372,
24136,-0.014153286814689636,0.008748885244131088,1.005846619606018,
24146,0.004194168373942375,0.004491277504712343,0.9890044927597046,
24156,-0.005976102314889431,-0.0073575787246227264,1.0272769927978516,
24166,0.00024878952535800636,-0.0063544646836817265,0.9853924512863159,
24176,0.002953283255919814,0.024139899760484695,0.9761890769004822,
24186,-0.010699624195694923,0.012134113349020481,1.0073848962783813,
24196,0.0019409360829740763,0.008821120485663414,0.9748254418373108,
24206,-0.00888341385871172,0.009428007528185844,0.985938310623169,
24216,-0.004017103463411331,0.036667369306087494,1.012664794921875,
24226,0.0062531293369829655,-0.0013912816066294909,1.0041298866271973,
24236,-0.02660401165485382,-0.010550009086728096,1.0312459468841553,
24246,-0.011495715007185936,0.0034433105029165745,1.017513394355774,
24256,-0.00882969330996275,0.0315360501408577,0.9870770573616028,
24266,-0.006421211175620556,0.009485868737101555,1.0182710886001587,
24276,0.014184440486133099,0.0061315931379795074,1.0212558507919312,
24286,0.012336283922195435,0.023768827319145203,0.9898942708969116,
24296,0.0058188834227621555,0.022554554045200348,0.9968689680099487,
24306,-0.03011663444340229,-0.018145572394132614,0.9998827576637268,
24316,0.004426972009241581,0.016980251297354698,0.9819450378417969,
24326,-0.0011448218720033765,0.003090407233685255,1.001340627670288,
24336,0.005101932678371668,0.0423489473760128,1.0108970403671265,
24346,-0.0028226471040397882,0.024882826954126358,0.9703059196472168,
24356,-0.003649886464700103,-0.0024254792369902134,1.0151617527008057,
24366,0.0009368202881887555,0.009894700720906258,1.0232243537902832,
24376,-0.006523958407342434,0.013333066366612911,0.9924643635749817,
24386,-0.009732590056955814,0.01442398875951767,1.029652714729309,
24396,-0.0029599277768284082,-0.00203737267293036,1.00905442237854,
24406,-0.009344921447336674,0.019437890499830246,0.9859885573387146,
24416,0.011462414637207985,0.012305806390941143,0.9801146388053894,
24426,-0.001564140198752284,-0.012369714677333832,1.0056686401367188,
24436,0.0009305807761847973,0.014226371422410011,0.9978262186050415,
24446,-0.013037694618105888,0.010465786792337894,0.9859158992767334,
24456,-0.00841878354549408,0.0065356963314116,1.0059815645217896,
24466,-0.01095153670758009,0.007709869649261236,0.977429211139679,
24476,-0.014729060232639313,-0.005655118729919195,0.9945061206817627,
24486,-0.014273859560489655,0.016555121168494225,0.9997749924659729,
24496,-0.011974521912634373,0.004146279767155647,1.0007905960083008,
24506,-0.0028842997271567583,0.0025886353105306625,1.0087894201278687,
24516,0.004702638369053602,0.005330120678991079,0.9813328385353088,
24526,0.0005306017701514065,-0.008231185376644135,0.9908040761947632,
24536,0.0023695838171988726,0.005239512771368027,0.9868335723876953,
24546,-0.00810607522726059,0.016010690480470657,0.9748762845993042,
24556,-0.015541152097284794,-0.0004505239485297352,0.9793291687965393,
24566,-0.010077226907014847,0.016585098579525948,0.9860976934432983,
24576,-0.0021456927061080933,-0.006151814945042133,1.0170867443084717,
24586,-0.0018937665736302733,0.029994746670126915,1.0173991918563843,
24596,0.01893080398440361,0.01755603216588497,1.0079522132873535,
24606,-0.03427102044224739,-0.02941369079053402,1.0384258031845093,
24616,0.01565454714000225,0.0010542419040575624,1.0040860176086426,
24626,-0.0011446814751252532,0.0037557720206677914,0.9979001879692078,
24636,-0.009531097486615181,0.02810780517756939,1.0166572332382202,
24646,-0.011453590355813503,0.03896959871053696,0.9478605389595032,
24656,0.00977882370352745,-0.016439661383628845,0.9936417937278748,
24666,-0.0015528153162449598,0.045958511531353,0.9866014719009399,
24676,0.02047567069530487,0.05195076763629913,0.9691910147666931,
24686,-0.030302930623292923,-0.00133102061226964,1.04587984085083,
24696,0.00772004434838891,-0.013432249426841736,1.0149668455123901,
24706,-0.014494810253381729,0.00921226292848587,0.9858105182647705,
24716,0.00680834986269474,0.04657759889960289,0.9848498106002808,
24726,-0.0031502745114266872,0.012501236982643604,0.9533900022506714,
24736,0.01449406798928976,-0.0174114927649498,1.0158326625823975,
24746,-0.010853475891053677,0.0050703780725598335,1.0045750141143799,
24756,-0.010433030314743519,0.015618088655173779,1.0012999773025513,
24766,-0.017903530970215797,0.018020862713456154,1.0288150310516357,
24776,-0.008328787051141262,-0.004072828684002161,0.9869402647018433,
24786,-0.011132360436022282,0.017718609422445297,1.0006810426712036,
24796,0.0042751263827085495,0.0034375395625829697,0.9966166019439697,
24806,-0.009448501281440258,0.0071778688579797745,0.9780389666557312,
24816,-0.005765347275882959,-0.003974479157477617,1.0050389766693115,
24826,-0.01360416505485773,0.00390776339918375,1.0139966011047363,
24836,-0.01966552622616291,-0.010049091652035713,1.0213966369628906,
24846,-0.01028350181877613,0.027255430817604065,1.000501036643982,
24856,-0.0017574179219081998,0.02196340635418892,1.0105376243591309,
24866,-0.022520625963807106,-0.001994382357224822,1.0055766105651855,
24876,0.009413380175828934,-0.004254000261425972,1.007737159729004,
24886,-0.007367050740867853,0.006849934346973896,0.9778106212615967,
24896,0.0016298220725730062,0.03665885701775551,0.9914252161979675,
24906,-0.020391708239912987,0.013856092467904091,0.9691968560218811,
24916,-0.012037047185003757,-0.0096519123762846,1.0042240619659424,
24926,-0.010132037103176117,0.03209734335541725,0.9956756830215454,
24936,-0.011780396103858948,-0.0025186524726450443,0.9954000115394592,
24946,-0.01242136862128973,0.003581856144592166,1.0065354108810425,
24956,-0.002856549574062228,0.00909392535686493,0.9910115003585815,
24966,-0.014090267941355705,-0.0029225009493529797,1.0128915309906006,
24976,-0.017255395650863647,-0.011615579016506672,1.022420883178711,
24986,-0.004799927119165659,0.02751225233078003,0.9899418950080872,
24996,-0.004478749819099903,0.015431633219122887,1.0004847049713135,
25006,-0.010805312544107437,0.007195459678769112,1.0027827024459839,
25016,0.004387060645967722,0.017675252631306648,0.9998895525932312,
25026,-0.014539046213030815,0.003547630039975047,1.0085883140563965,
25036,-0.004152033943682909,0.021716706454753876,1.032260537147522,
25046,-0.0049888999201357365,0.0013008093228563666,1.0011069774627686,
25056,-0.006985110230743885,0.01710078865289688,1.01019287109375,
25066,0.007348731625825167,0.020094459876418114,1.010110855102539,
25076,-0.01176639273762703,0.009731920436024666,0.9980872273445129,
25086,-0.010529563762247562,0.01831330545246601,0.9843146800994873,
25096,-0.009317358955740929,0.013450095430016518,0.9920604825019836,
25106,-0.003095371648669243,-0.01079035084694624,1.0142697095870972,
25116,-0.012673631310462952,0.0047243558801710606,1.012566089630127,
25126,-0.004571199417114258,0.00023928908922243863,0.9920588731765747,
25136,-0.012403720058500767,-0.007859350182116032,0.9961459040641785,
25146,-0.01977517083287239,0.007446101866662502,1.017996907234192,
25156,-0.005418027751147747,0.01774189993739128,0.9700807929039001,
25166,-0.02431720495223999,-0.001177897327579558,0.9999266862869263,
25176,-0.00584607757627964,0.03347955271601677,0.9987351894378662,
25186,-0.002792172133922577,0.009999961592257023,0.982292890548706,
25196,-0.00926215760409832,0.010648449882864952,0.9951772093772888,
25206,-0.005611310247331858,0.02440824918448925,0.9919219613075256,
25216,-0.0023850672878324986,-0.010118971578776836,1.0187122821807861,
25226,-0.0016423451015725732,0.018596893176436424,1.0308260917663574,
25236,-0.00010689230839489028,0.012971335090696812,0.9903367757797241,
25246,-0.010413313284516335,0.019645612686872482,0.9808476567268372,
25256,-0.020011119544506073,0.017511051148176193,0.9711028337478638,
25266,-0.015422331169247627,0.021184220910072327,1.00867760181427,
25276,0.007035406772047281,0.008414001204073429,0.9928086400032043,
25286,-0.019511831924319267,0.0011690979590639472,1.0078797340393066,
25296,0.014374480582773685,0.008707219734787941,0.9946190118789673,
25306,-0.021930161863565445,0.00636669434607029,0.9604405760765076,
25316,-0.017772970721125603,0.018020685762166977,0.9807175397872925,
25326,-0.008816045708954334,0.02167339064180851,0.9829358458518982,
25336,-0.0029867985285818577,-0.02029498666524887,0.9927576184272766,
25346,-0.014435922726988792,0.015522207133471966,1.006982684135437,
25356,0.00015178247122094035,0.013426211662590504,0.9951626658439636,
25366,-0.008376313373446465,0.025474805384874344,0.9688103199005127,
25376,-0.007819999940693378,0.0017685933271422982,0.9938743114471436,
25386,-0.015987509861588478,0.0013934012968093157,0.9862703680992126,
25396,-0.0019224431598559022,0.02878545969724655,0.9859111905097961,
25406,-0.0219329334795475,-0.01859358511865139,1.0336883068084717,
25416,0.004124272149056196,-0.0006608710391446948,1.0119516849517822,
25426,-0.004490984603762627,0.044792935252189636,1.0037164688110352,
25436,-0.018917933106422424,0.008045901544392109,0.9679781198501587,
25446,0.010195087641477585,-0.019372163340449333,1.025516152381897,
25456,-0.014420678839087486,0.0467158779501915,0.9970136284828186,
25466,-0.026613982394337654,0.025419335812330246,1.0140279531478882,
25476,-0.018001897260546684,0.023695096373558044,0.9799809455871582,
25486,0.008375635370612144,-0.00664018327370286,0.9940552711486816,
25496,0.0007546300766989589,-0.011523116379976273,0.9864539504051208,
25506,-0.007450478617101908,0.012529062107205391,0.9937437176704407,
25516,-0.016940150409936905,0.04337140917778015,1.0057710409164429,
25526,-0.01297716423869133,-0.008976141922175884,0.998714804649353,
25536,-0.011843763291835785,0.04533062502741814,0.9898819327354431,
25546,0.0011930138571187854,0.012064321897923946,0.9821683764457703,
25556,-0.011776682920753956,-0.02670373022556305,0.9921734929084778,
25566,-0.004104488529264927,0.016085559502243996,1.0201622247695923,
25576,-0.004760692361742258,0.03652244433760643,0.9993301033973694,
25586,-0.017191171646118164,-0.0008356253383681178,0.9885327219963074,
25596,-0.017733413726091385,0.015269732102751732,0.9834533929824829,
25606,0.00032515288330614567,0.015613204799592495,0.9952863454818726,
25616,-0.005648456513881683,0.0004004230140708387,0.9957408905029297,
25626,-0.005308847874403,-0.011427161283791065,0.9928896427154541,
25636,-0.014774968847632408,0.0034546037204563618,0.9929727911949158,
25646,-0.0036295107565820217,0.005062375217676163,0.9857099652290344,
25656,-0.014304929412901402,0.001140085980296135,0.9779251217842102,
25666,0.007693581283092499,0.018891865387558937,1.007269024848938,
25676,0.014341541565954685,0.006993874907493591,0.9990363717079163,
25686,-0.006760078016668558,-0.00232476694509387,1.0233781337738037,
25696,-0.0043214769102633,0.03483646735548973,0.9814034104347229,
25706,0.0008001934620551765,0.0055160303600132465,0.9779027700424194,
25716,0.000698936462868005,0.02999694272875786,1.0069518089294434,
25726,-0.014413953758776188,-0.00045303371734917164,0.9905006289482117,
25736,-0.013778013177216053,-0.013278676196932793,1.0126993656158447,
25746,-0.007189274299889803,0.004531583283096552,1.0134636163711548,
25756,0.00439026951789856,0.0025135704781860113,1.0047355890274048,
25766,-0.008925896137952805,-0.0023112925700843334,1.0122369527816772,
25776,-0.013481044210493565,0.005983801558613777,0.9904261231422424,
25786,-0.007932716980576515,0.017757020890712738,0.9832350015640259,
25796,-0.015109950676560402,-0.0012198635376989841,0.9786416292190552,
25806,-0.01906639337539673,0.0022125376854091883,1.0055691003799438,
25816,0.012619799934327602,0.014409580267965794,0.992014467716217,
25826,-0.0039918855763971806,0.004492724779993296,0.990455150604248,
25836,0.011798146180808544,0.022328415885567665,1.0029863119125366,
25846,-0.017425628378987312,-0.0025449427776038647,0.9863112568855286,
25856,-0.01964738592505455,-0.022483088076114655,1.0068655014038086,
25866,-0.0028396951965987682,0.06096339970827103,0.9917750358581543,
25876,-0.01423060055822134,0.015934444963932037,0.9758381843566895,
25886,-0.016306061297655106,-0.0031143093947321177,1.007616400718689,
25896,-0.004842310678213835,-0.009654867462813854,0.9925395250320435,
25906,-0.0028888508677482605,-0.0085162203758955,1.0148751735687256,
25916,-0.010154249146580696,0.002867205999791622,1.011067271232605,
25926,-0.003650402883067727,0.010818795301020145,1.0032291412353516,
25936,-0.00801530759781599,0.0032931091263890266,1.0071407556533813,
25946,-0.012667408213019371,-0.011011671274900436,1.0210916996002197,
25956,-0.010293245315551758,0.01570137031376362,0.9854748845100403,
25966,-0.01269572414457798,0.0029988603200763464,0.9826186299324036,
25976,-0.014985914342105389,0.02028600499033928,0.9816111326217651,
25986,0.012756604701280594,0.002692796988412738,1.038051724433899,
25996,0.001715108286589384,-0.0031870384700596333,0.9964544177055359,
26006,-0.006290810648351908,0.018247101455926895,0.9979214072227478,
26016,-0.009400103241205215,0.011334137991070747,0.9745810627937317,
26026,0.006142058409750462,-0.014191715978085995,1.00886869430542,
26036,0.01015443168580532,0.0588219054043293,1.0073426961898804,
26046,-0.02330770529806614,0.010527671314775944,0.9736508131027222,
26056,-0.008756528608500957,-0.004790870472788811,1.0115886926651,
26066,0.0023276859428733587,0.061447370797395706,1.003767728805542,
26076,-0.014985984191298485,-0.0039169262163341045,1.0093220472335815,
26086,-0.012320542708039284,-0.004326872527599335,1.0229660272598267,
26096,0.0027401370462030172,0.010998028330504894,0.9903229475021362,
26106,-0.0014224483165889978,0.010997784323990345,0.9749811887741089,
26116,0.0009456757688894868,0.0015880301361903548,1.0156126022338867,
26126,-0.013706128112971783,0.020178914070129395,1.0062042474746704,
26136,-0.009147913195192814,0.0015624049119651318,1.0123505592346191,
26146,-0.011841977946460247,0.010193598456680775,0.9776630997657776,
26156,0.008505298756062984,-0.005339622497558594,0.9997472763061523,
26166,0.0006168698891997337,0.001939228968694806,1.0173331499099731,
26176,-0.013633908703923225,0.009520861320197582,1.0163540840148926,
26186,0.0018586857477203012,0.009798457846045494,0.9735803008079529,
26196,-0.0016343651805073023,-0.009377342648804188,0.9737280607223511,
26206,-0.0011839730432257056,0.020605262368917465,0.9985843896865845,
26216,-0.010789437219500542,0.02450460009276867,1.004874348640442,
26226,-0.016579126939177513,-0.020293444395065308,1.0122630596160889,
26236,0.00017737431335262954,0.0675949901342392,0.9903296232223511,
26246,0.008247526362538338,0.0012937069404870272,0.9848660826683044,
26256,-0.008059117943048477,-0.007349883671849966,1.005158543586731,
26266,0.001213812967762351,0.0362609326839447,0.9910910129547119,
26276,-0.012915322557091713,-0.010007095523178577,0.9814643263816833,
26286,0.0025137821212410927,-0.0049955411814153194,0.9874334335327148,
26296,0.005642722360789776,0.03917023167014122,0.9859811067581177,
26306,-0.013141520321369171,0.014426667243242264,0.9900750517845154,
26316,-0.00868310034275055,-0.012226240709424019,1.0055034160614014,
26326,-0.0005936687812209129,-0.001796809141524136,0.9910519123077393,
26336,-0.0035730861127376556,-0.00592179037630558,0.9984284043312073,
26346,-0.012864409014582634,0.004107797052711248,1.0127917528152466,
26356,-0.0005124947056174278,0.010162865743041039,0.984947919845581,
26366,-0.005667860619723797,0.003800187027081847,0.9788112044334412,
26376,-0.0034358168486505747,-0.0040787686593830585,0.9867982864379883,
26386,-0.02164895087480545,0.007899699732661247,1.0119973421096802,
26396,-0.018743846565485,-0.0028480147011578083,0.9940863251686096,
26406,-0.011303979903459549,0.03528427705168724,0.9680463671684265,
26416,0.018966156989336014,0.00911045540124178,1.024819016456604,
26426,0.008574597537517548,-0.005354228895157576,0.9819403886795044,
26436,0.0023513613268733025,0.020814798772335052,0.9913713932037354,
26446,-0.0026616298127919436,0.009825177490711212,0.9830372333526611,
26456,-0.020958615466952324,-0.007141422480344772,0.9863088130950928,
26466,-0.01064228918403387,0.03807470574975014,0.9840798377990723,
26476,-0.01166365947574377,0.019359968602657318,0.9461565017700195,
26486,-0.00706652645021677,-0.00823129527270794,0.9952319860458374,
26496,-0.009092524647712708,0.018166184425354004,1.0238327980041504,
26506,-0.005192689597606659,0.0007031735731288791,0.9887621402740479,
26516,-0.007183615583926439,-0.0002173587417928502,0.9929090738296509,
26526,-0.0025580625515431166,0.011609581299126148,0.9943772554397583,
26536,-0.00978783331811428,0.012978149577975273,0.9881579279899597,
26546,-0.015222622081637383,-0.0059544965624809265,1.0007288455963135,
26556,-0.019459059461951256,0.009031612426042557,0.9995040893554688,
26566,0.00658777542412281,0.017233947291970253,1.0035030841827393,
26576,-0.013176674023270607,0.0024231867864727974,1.0083775520324707,
26586,0.009575702250003815,0.02849620208144188,0.9943840503692627,
26596,-0.001983699854463339,0.035710569471120834,0.9714306592941284,
26606,-0.01061697956174612,0.02243546023964882,0.9860154390335083,
26616,0.0007288740598596632,0.022797755897045135,0.9954814910888672,
26626,-0.006167380604892969,0.0062021128833293915,0.9933261871337891,
26636,-0.015621617436408997,-0.0030630200635641813,0.9966579079627991,
26646,-0.010628142394125462,0.014527960680425167,1.0007054805755615,
26656,-0.006849265191704035,0.0024040397256612778,0.9778675436973572,
26666,-0.011899680830538273,0.004140875302255154,0.9795175194740295,
26676,-0.0041327751241624355,0.010486810468137264,0.9917067885398865,
26686,-0.01110027264803648,0.007511048577725887,0.9919705390930176,
26696,-0.008842673152685165,0.0004962811362929642,1.0025721788406372,
26706,-0.003918232396245003,0.01611441746354103,1.0171974897384644,
26716,0.007483092602342367,0.012938732281327248,1.0062470436096191,
26726,-0.01934313401579857,-0.014151103794574738,1.0133007764816284,
26736,0.0012569549726322293,0.013645932078361511,0.9884790778160095,
26746,0.0009142350172623992,0.030708199366927147,0.9862691760063171,
26756,-0.011188165284693241,0.002083872677758336,0.9973926544189453,
26766,-0.0031521818600594997,0.01476303767412901,1.01715087890625,
26776,-0.016024617478251457,-0.012034733779728413,1.021606683731079,
26786,-0.019671212881803513,0.00830049067735672,1.0093231201171875,
26796,-0.004037046805024147,0.01581471413373947,0.9964061975479126,
26806,-0.003461719723418355,-0.0013270812341943383,1.0151457786560059,
26816,-0.013514973223209381,0.003916241228580475,1.0240851640701294,
26826,-0.007508120033890009,0.0022790259681642056,1.0144493579864502,
26836,-0.007499301340430975,0.0047287717461586,1.015753984451294,
26846,-0.0017662764294072986,0.008245289325714111,1.0200165510177612,
26856,-0.008356936275959015,0.016302134841680527,0.9987335205078125,
26866,-0.017302216961979866,0.002379932440817356,1.0033113956451416,
26876,-0.0064682429656386375,0.023917950689792633,0.9987453818321228,
26886,0.0006918490980751812,-0.009876362048089504,1.052972674369812,
26896,-0.006033259443938732,0.014957576990127563,1.0198638439178467,
26906,-0.00028040673350915313,0.021161984652280807,1.022972583770752,
26916,-0.023051850497722626,0.007446274161338806,1.0096042156219482,
26926,0.019269704818725586,0.018120339140295982,1.0211158990859985,
26936,0.005577799864113331,0.02699139714241028,0.9795777797698975,
26946,-0.011444400064647198,0.024390092119574547,1.0158143043518066,
26956,-0.0020621921867132187,0.012350721284747124,0.9619731903076172,
26966,-0.008230684325098991,0.0027364285197108984,0.9691085815429688,
26976,-0.0007336377166211605,0.03504909202456474,1.007966160774231,
26986,-0.014002818614244461,0.008836612105369568,0.9954925775527954,
26996,-0.005474194884300232,-0.02616078220307827,1.0110399723052979,
27006,0.0006007557385601103,-0.0020773685537278652,0.9999028444290161,
27016,0.0058572134003043175,-0.011930775828659534,1.01260507106781,
27026,-0.005835238844156265,-0.0032457930501550436,1.0315561294555664,
27036,-0.007158069405704737,0.012961579486727715,0.9971117377281189,
27046,-0.006944594904780388,0.009026115760207176,0.9802442789077759,
27056,-0.008214381523430347,-0.004933888092637062,0.9942232370376587,
27066,-0.017911504954099655,0.013521690852940083,1.010792851448059,
27076,-0.009670448489487171,-8.628836440038867e-06,1.0191928148269653,
27086,-0.007218904327601194,0.035586878657341,1.0276598930358887,
27096,-0.0007390672108158469,0.021949855610728264,1.0329129695892334,
27106,-0.0180723425000906,-0.005370748229324818,0.9854755401611328,
27116,0.02639835514128208,-0.003133934224024415,0.9988173842430115,
27126,-0.00607628608122468,0.030096933245658875,0.9973418712615967,
27136,-0.00680165272206068,0.03704075142741203,0.973321259021759,
27146,-0.005070112179964781,0.0360170379281044,0.9555826783180237,
27156,-0.009589367546141148,-0.02150125242769718,1.0020999908447266,
27166,-0.0066115059889853,0.07821054011583328,1.0050137042999268,
27176,0.019882775843143463,0.010639302432537079,0.9862565398216248,
27186,0.0030537936836481094,-0.022268326953053474,1.0078904628753662,
27196,-0.002909464994445443,0.025026995688676834,1.001207709312439,
27206,1.69005106727127e-05,0.02654307708144188,0.9623771905899048,
27216,-0.007712391670793295,-0.002064166823402047,0.9794735312461853,
27226,-0.008541976101696491,0.033538009971380234,0.9680127501487732,
27236,-0.00033834652276709676,0.0006515660788863897,0.9782880544662476,
27246,-0.011637981981039047,0.006410339381545782,1.0332602262496948,
27256,-0.006716941948980093,-0.002862247172743082,0.9948869347572327,
27266,-0.009390623308718204,0.02339741215109825,0.9845729470252991,
27276,-0.010004246607422829,0.008824062533676624,0.9834854602813721,
27286,-0.01398200262337923,0.0130614023655653,0.9712831974029541,
27296,-0.0013411379186436534,-0.004189375322312117,1.0015486478805542,
27306,-0.014565582387149334,0.01506008766591549,1.0093953609466553,
27316,0.00210735690779984,0.009679353795945644,1.0059478282928467,
27326,-0.005722276400774717,0.012833356857299805,0.9848103523254395,
27336,0.0016949312994256616,0.011974022723734379,0.9915955066680908,
27346,-0.008132067508995533,-0.0006321631371974945,0.9601759910583496,
27356,0.0024298427160829306,-0.003550573717802763,0.9779103398323059,
27366,0.0004727582272607833,0.023097660392522812,0.9947808384895325,
27376,-0.005569142289459705,0.008237343281507492,0.9695358276367188,
27386,-0.0057679638266563416,0.015297538600862026,0.9868322014808655,
27396,-0.009733717888593674,0.017319979146122932,0.9919992089271545,
27406,-0.015435010194778442,0.021660108119249344,0.9832673072814941,
27416,0.004290381912142038,0.01158792246133089,1.024865984916687,
27426,-0.0070487698540091515,-0.015068150125443935,0.9812280535697937,
27436,0.004376246128231287,0.010665611363947392,0.9719082117080688,
27446,-0.007450117263942957,0.01348145306110382,1.0008587837219238,
27456,0.004483722150325775,0.011319977231323719,0.9882371425628662,
27466,0.003831933718174696,0.01590207777917385,1.0070356130599976,
27476,-0.0163178201764822,0.0009525525965727866,1.0072400569915771,
27486,-0.0015631596324965358,0.051424331963062286,0.9955773949623108,
27496,-0.0031794605311006308,0.00853725802153349,0.9909417629241943,
27506,-0.00976918451488018,0.015422619879245758,1.0033233165740967,
27516,-0.013515005819499493,0.008766574785113335,0.9747494459152222,
27526,-0.022234661504626274,0.0025534501764923334,1.025556206703186,
27536,-0.004755922127515078,0.017673566937446594,1.0089406967163086,
27546,-0.006253401283174753,0.005873425398021936,0.9841786026954651,
27556,-0.00044382642954587936,0.013225998729467392,1.0013879537582397,
27566,-0.0010889427503570914,0.005478281993418932,1.0052827596664429,
27576,-0.008163807913661003,0.006569705903530121,1.008094310760498,
27586,-0.006047931965440512,0.01342975627630949,0.9938122630119324,
27596,-0.009012465365231037,0.005696184001863003,1.018937110900879,
27606,-0.013037755154073238,0.012668570503592491,1.0186930894851685,
27616,-0.009790562093257904,0.006661988329142332,1.0073318481445312,
27626,-0.00987187772989273,-0.004898167215287685,1.010663628578186,
27636,-0.006306126248091459,0.01027527917176485,1.020932912826538,
27646,0.005001560784876347,0.006932345684617758,1.0115505456924438,
27656,-0.020235052332282066,0.010403371416032314,1.005562424659729,
27666,-0.00451581459492445,0.012998110614717007,1.0061798095703125,
27676,-0.007329623214900494,-0.0076838708482682705,0.9967983365058899,
27686,-0.0006807463360019028,0.0020661777816712856,1.0000650882720947,
27696,-0.016396762803196907,-0.006533078383654356,1.0134153366088867,
27706,-0.005612439010292292,0.006697123870253563,0.9768545031547546,
27716,-0.004464419558644295,0.012574377469718456,0.985355019569397,
27726,-0.01660357043147087,0.0020511706825345755,1.0029500722885132,
27736,-0.0016197848599404097,0.043267469853162766,1.0199905633926392,
27746,0.004670837894082069,0.013273191638290882,1.0233975648880005,
27756,-0.015137949027121067,0.012711984105408192,1.0181621313095093,
27766,0.0002581922453828156,0.010246221907436848,1.0104392766952515,
27776,-0.016029609367251396,-0.0009917441057041287,1.013264775276184,
27786,-0.004000865388661623,0.01247941143810749,1.0135520696640015,
27796,-0.0016739069251343608,-0.0013977495254948735,0.9903669357299805,
27806,0.0015831226482987404,0.024599559605121613,1.007275938987732,
27816,-0.0041495198383927345,0.008445647545158863,1.0027124881744385,
27826,-0.009236791171133518,-0.0015028138877823949,0.9952168464660645,
27836,-0.004946282599121332,0.007999050430953503,0.9994825124740601,
27846,-0.014110039919614792,0.003502897685393691,0.9917417764663696,
27856,-0.001514742965810001,0.0520799495279789,1.0227763652801514,
27866,-0.005108354613184929,0.007141123991459608,0.9801228642463684,
27876,-0.013794299215078354,-0.006374088581651449,1.003240704536438,
27886,-0.005986575037240982,0.02493182010948658,0.9875310659408569,
27896,-0.013749342411756516,-0.0003351179766468704,0.9674056768417358,
27906,0.007109429687261581,0.012400852516293526,0.9782247543334961,
27916,-0.008394507691264153,0.004662822932004929,0.9638123512268066,
27926,-0.007188121322542429,0.003178930841386318,0.9975682497024536,
27936,-0.00736930500715971,0.0046409862115979195,1.002577543258667,
27946,-0.0073386128060519695,0.002430196851491928,1.0108476877212524,
27956,-0.011848989874124527,0.0005047806189395487,1.0121608972549438,
27966,-0.008383127860724926,0.00864147674292326,0.9912226796150208,
27976,-0.009640851058065891,0.009865797124803066,0.995592474937439,
27986,-0.001367465010844171,0.004701911937445402,0.9922270774841309,
27996,-0.008056257851421833,0.0006277755019254982,0.9856410622596741,
28006,-0.005677800625562668,0.005170721560716629,0.9860264658927917,
28016,-0.004983598832041025,-0.0031481473706662655,0.9980661273002625,
28026,-0.01587524823844433,0.013665873557329178,0.9878063201904297,
28036,-0.00031317787943407893,0.01618228666484356,1.0055903196334839,
28046,-0.006803861353546381,0.0035602301359176636,1.0001007318496704,
28056,-0.009876374155282974,0.007838107645511627,0.9860125184059143,
28066,-0.011204704642295837,-0.00043379474664106965,1.002334475517273,
28076,-0.002503304509446025,0.001873497269116342,0.9633356332778931,
28086,-0.004344367887824774,0.013375706970691681,0.9805418848991394,
28096,-0.025762053206562996,-0.008390083909034729,1.0029641389846802,
28106,-0.008635278791189194,0.05594407021999359,0.9850520491600037,
28116,-0.0003606649115681648,0.015145745128393173,1.0114301443099976,
28126,-0.016193700954318047,-0.0013227610616013408,1.0064382553100586,
28136,0.007073544897139072,-0.003175985300913453,0.9994334578514099,
28146,-0.003881545504555106,0.007662278134375811,0.9891698956489563,
28156,0.021977342665195465,0.052301838994026184,0.9820743203163147,
28166,-0.013857441954314709,0.00877139251679182,0.9787043929100037,
28176,0.005511684808880091,-0.003656507469713688,1.0094285011291504,
28186,0.0013376481365412474,-0.012012016028165817,1.0007908344268799,
28196,-6.41995995920297e-07,0.04304135963320732,1.0150303840637207,
28206,-0.0016826692735776305,0.08157723397016525,0.9827433228492737,
28216,-0.026422768831253052,0.006808284670114517,1.0349465608596802,
28226,-0.0068510714918375015,-0.00561777176335454,1.030402660369873,
28236,-0.016377370804548264,-0.0004422619822435081,1.0089865922927856,
28246,0.003143246052786708,0.04797297716140747,1.0174733400344849,
28256,0.005122395697981119,0.027012884616851807,0.9974254965782166,
28266,0.004782779607921839,0.004886269569396973,0.9967482686042786,
28276,-0.008917680941522121,0.006177505012601614,0.9882596135139465,
28286,-0.0026836073957383633,-0.0034715814981609583,1.0248610973358154,
28296,-0.011875994503498077,0.02034197561442852,1.017989158630371,
28306,-0.019005782902240753,-0.003057990688830614,1.0026928186416626,
28316,-0.010308068245649338,0.00776945473626256,1.0064315795898438,
28326,-0.001689587952569127,-0.004915538709610701,0.9919652342796326,
28336,-0.011851433664560318,0.007620439399033785,0.9953510165214539,
28346,-0.0014298068126663566,0.003463390050455928,0.9938050508499146,
28356,-0.014758461154997349,0.0003705465642269701,1.021148443222046,
28366,-0.007217216771095991,0.005404957104474306,0.9916629195213318,
28376,-0.006932494696229696,0.006031355820596218,1.0044119358062744,
28386,-0.009469626471400261,0.011911023408174515,0.99363112449646,
28396,-0.007540460210293531,0.005778695922344923,0.999817967414856,
28406,-0.016541266813874245,0.012626133859157562,1.0041013956069946,
28416,-0.00382139440625906,0.014224191196262836,0.9807136654853821,
28426,-0.018731148913502693,-0.0007888029213063419,1.0030330419540405,
28436,-0.011191102676093578,0.008373464457690716,0.979962944984436,
28446,-0.005418276879936457,-0.0008490462205372751,0.9846776723861694,
28456,-0.010733256116509438,0.006161794066429138,1.0019983053207397,
28466,-0.00140662444755435,0.034636031836271286,0.978622317314148,
28476,-0.02292225882411003,0.02116791531443596,1.0058504343032837,
28486,0.015579698607325554,-0.0031905234791338444,1.0019662380218506,
28496,-0.004214730579406023,-0.004362555220723152,1.0118448734283447,
28506,-0.0011575407115742564,0.015479014255106449,1.0022659301757812,
28516,-0.016028111800551414,0.041333604604005814,0.9845913052558899,
28526,-0.0018123157788068056,0.02341543138027191,1.0044749975204468,
28536,0.007378160022199154,0.03490414470434189,0.9422364830970764,
28546,0.004073459655046463,-0.007703329436480999,0.9624703526496887,
28556,0.0001875739253591746,0.016059018671512604,0.9839728474617004,
28566,-0.01694759540259838,-0.008125453256070614,0.9792908430099487,
28576,-0.0050256382673978806,0.06475888937711716,0.9829574227333069,
28586,-0.0035729357041418552,-0.009653820656239986,1.0158771276474,
28596,0.010281450115144253,-0.005169825628399849,1.0203114748001099,
28606,-0.01642756164073944,-0.020635435357689857,0.98737633228302,
28616,0.000520617701113224,-0.011721803806722164,1.0043566226959229,
28626,-0.009114609099924564,0.03761107102036476,0.993394136428833,
28636,-0.008681138977408409,0.03970372676849365,0.9984075427055359,
28646,-0.004413327667862177,0.04582521691918373,0.9826065301895142,
28656,-0.00783280935138464,0.002167792757973075,0.982403039932251,
28666,0.00812715943902731,0.008663279935717583,0.9938185214996338,
28676,0.0028940702322870493,-0.004136103205382824,0.9771508574485779,
28686,-0.0022824720945209265,0.009110958315432072,1.007386326789856,
28696,0.00010481078788870946,0.012733361683785915,0.9890180230140686,
28706,-0.009923292323946953,0.002940517384558916,0.9916267991065979,
28716,-0.009435086511075497,0.025017041712999344,1.008257269859314,
28726,-0.010746382176876068,0.020939942449331284,1.0188844203948975,
28736,-0.00699837738648057,0.008874034509062767,1.0008008480072021,
28746,-0.003941704984754324,-0.010712668299674988,1.0090447664260864,
28756,-0.004633904900401831,0.0022273787762969732,1.0050058364868164,
28766,-0.005182980094105005,0.0077325403690338135,0.9854838848114014,
28776,-0.005749766249209642,0.002360275015234947,1.0025968551635742,
28786,0.0005713673308491707,0.012303214520215988,0.988664984703064,
28796,1.3117215530655812e-05,0.013164627365767956,1.010929822921753,
28806,-0.008825886994600296,0.005305528175085783,0.984078586101532,
28816,-0.006971963215619326,-0.0005350604187697172,0.9945245385169983,
28826,-0.011244875378906727,0.008972672745585442,0.9972185492515564,
28836,-0.01019268948584795,0.014270913787186146,1.0005196332931519,
28846,-0.004973930772393942,-0.002735871821641922,1.004711627960205,
28856,-0.00395962642505765,-0.004142891149967909,0.9958809614181519,
28866,-0.0027860007248818874,-0.0006632519070990384,0.9888691306114197,
28876,-0.008221825584769249,0.008431589230895042,0.9901247620582581,
28886,0.003924156539142132,0.0030094189569354057,1.0056703090667725,
28896,-0.0124887153506279,0.030080636963248253,1.0116592645645142,
28906,-0.012064161710441113,0.0058981552720069885,0.9928685426712036,
28916,-0.01393297128379345,0.01423510629683733,1.0107749700546265,
28926,-0.011172176338732243,0.005408116150647402,1.0091356039047241,
28936,-0.004832173697650433,0.01870815083384514,0.9834468364715576,
28946,-0.004053247161209583,-0.002061385428532958,1.0253678560256958,
28956,-8.572320075472817e-05,0.008709121495485306,1.0019986629486084,
28966,0.018893947824835777,-0.004209585953503847,1.0173768997192383,
28976,-0.0020817413460463285,-0.002412395318970084,1.0046058893203735,
28986,-0.009222252294421196,-0.00525459460914135,1.0156174898147583,
28996,-0.006395294331014156,-0.007381536532193422,1.0051653385162354,
29006,-0.005478555336594582,0.0068177697248756886,0.9990634322166443,
29016,-0.004497298505157232,-0.0017571363132447004,0.9809149503707886,
29026,-0.005304060410708189,0.007115925196558237,0.9907979965209961,
29036,0.005415227264165878,-0.011449024081230164,1.0195242166519165,
29046,0.0036936295218765736,0.009532610885798931,1.0142704248428345,
29056,-0.015881406143307686,-0.0027028287295252085,0.9862556457519531,
29066,-0.007360151037573814,0.005243072751909494,0.9756855964660645,
29076,-0.004174381494522095,0.009639174677431583,1.0033389329910278,
29086,-0.002838969463482499,0.008207591250538826,1.0027905702590942,
29096,0.001043445779941976,0.007946720346808434,0.9753013253211975,
29106,-0.009702282957732677,-0.009511088021099567,1.0051753520965576,
29116,-0.004194230306893587,0.012700547464191914,1.0019358396530151,
29126,-0.01365031860768795,0.0014546803431585431,0.986889660358429,
29136,-0.009149966761469841,0.03360115736722946,0.9975552558898926,
29146,0.00797690823674202,0.021193481981754303,0.9998086094856262,
29156,5.792917363578454e-06,0.010360936634242535,1.0031089782714844,
29166,0.004101544618606567,0.0018197030294686556,0.9759318828582764,
29176,0.025197690352797508,-0.020652662962675095,0.9895505309104919,
29186,0.004183291457593441,0.019168218597769737,1.0022293329238892,
29196,-0.01850038580596447,0.02712964452803135,0.9781673550605774,
29206,-0.007546541281044483,0.03915444761514664,1.0119682550430298,
29216,-0.014263535849750042,-0.018363703042268753,0.989128053188324,
29226,-0.013518024235963821,-0.005322400480508804,1.0281355381011963,
29236,-0.00474384194239974,-0.0011113060172647238,1.0036876201629639,
29246,-0.00440214341506362,0.032060470432043076,0.9948371052742004,
29256,-0.002784868236631155,0.027520211413502693,0.9972561597824097,
29266,-0.022632936015725136,-0.00715233851224184,1.0145759582519531,
29276,0.009776532649993896,0.012824560515582561,0.9853165149688721,
29286,-0.007478935178369284,-0.0006649975548498333,0.9839603900909424,
29296,-0.00800557341426611,0.011175204068422318,0.9906026721000671,
29306,-0.020127354189753532,0.00359071372076869,0.9967625141143799,
29316,-0.0027159671299159527,0.03691937029361725,1.0102128982543945,
29326,0.00026549617177806795,0.009192421101033688,0.9930645227432251,
29336,-0.015400298871099949,0.005417310632765293,1.0243138074874878,
29346,-0.013635736890137196,0.003287488128989935,1.014541745185852,
29356,-0.009296327829360962,0.006483365781605244,0.9926398396492004,
29366,0.0010936796898022294,0.0019463211065158248,0.9887663722038269,
29376,0.0007152744801715016,0.016008028760552406,1.0303839445114136,
29386,0.010827615857124329,0.03866690397262573,0.9934800267219543,
29396,-0.01857481524348259,-0.005230199079960585,0.9962345361709595,
29406,0.00661899009719491,0.003551207948476076,1.0015065670013428,
29416,0.010579059831798077,-0.015417192131280899,0.9963926076889038,
29426,0.006190918851643801,0.0405489020049572,0.9949714541435242,
29436,-0.012382074259221554,0.050267450511455536,1.0228146314620972,
29446,-0.014295306988060474,0.04179348051548004,0.9704256057739258,
29456,-0.00024361102259717882,-0.002087342320010066,0.9748491048812866,
29466,0.00780959939584136,-0.03708204627037048,1.0244473218917847,
29476,-0.01969488337635994,-0.004203905817121267,1.0022194385528564,
29486,0.004417782183736563,0.07416988909244537,1.019787311553955,
29496,-0.01871492899954319,0.007139453198760748,0.9858688116073608,
29506,-0.023885181173682213,-0.02041802741587162,0.9825730323791504,
29516,0.023022033274173737,0.01226755976676941,1.0299957990646362,
29526,-0.010232411324977875,0.00927562266588211,1.01982581615448,
29536,-0.0017625082982704043,0.06976958364248276,1.005246877670288,
29546,-0.010856409557163715,0.023405134677886963,0.9996946454048157,
29556,0.010166754946112633,0.0022700640838593245,1.0011568069458008,
29566,-0.024462316185235977,-0.03097808174788952,1.0066808462142944,
29576,0.013926435261964798,0.011878566816449165,1.0042750835418701,
29586,-0.00016866264923010021,0.019126396626234055,0.9838996529579163,
29596,-0.005738933105021715,0.015405758284032345,1.0051981210708618,
29606,-0.003962477669119835,0.02421659603714943,0.9970545172691345,
29616,-0.005867017898708582,0.02205556258559227,1.0124109983444214,
29626,-0.011259539052844048,-0.0027252957224845886,0.9732683897018433,
29636,-0.013366617262363434,-0.006828989367932081,1.0013498067855835,
29646,0.00699616689234972,0.025231020525097847,0.9924964308738708,
29656,-0.0015389143954962492,0.00990243535488844,0.9857174754142761,
29666,0.010144147090613842,0.03384731337428093,0.9903200268745422,
29676,-0.01957525871694088,-0.0014865552075207233,1.0015552043914795,
29686,0.00043255803757347167,0.005382206756621599,1.0070000886917114,
29696,-0.002390072215348482,0.007998200133442879,0.9453584551811218,
29706,-0.002727028215304017,-0.015514476224780083,0.9950900077819824,
29716,0.006571803241968155,0.07725029438734055,0.9713380336761475,
29726,0.0033127113711088896,0.07816971838474274,1.0114963054656982,
29736,-0.013876953162252903,0.00873991847038269,1.0042738914489746,
29746,-0.017276328057050705,-0.036519087851047516,1.0248318910598755,
29756,-0.0006015779217705131,-0.01851578615605831,0.9981405138969421,
29766,-0.010913553647696972,0.012840986251831055,0.9886863231658936,
29776,-1.953295031853486e-05,0.03494296222925186,1.0193065404891968,
29786,-0.006815603002905846,0.031555309891700745,1.0047798156738281,
29796,0.0012009571073576808,0.016490383073687553,0.998205304145813,
29806,-0.011005212552845478,0.005085487850010395,0.9547783136367798,
29816,-0.027774689719080925,-0.016546199098229408,1.0032269954681396,
29826,0.0020489085000008345,0.031008843332529068,0.9957595467567444,
29836,-0.0002662254555616528,0.006637871731072664,0.9826812148094177,
29846,-0.0027576598804444075,0.015069575980305672,0.9851049780845642,
29856,-0.005160246044397354,0.006775249261409044,0.9779539704322815,
29866,0.0012420607963576913,-0.0006989312241785228,1.002913475036621,
29876,-0.003074792679399252,0.006841612048447132,0.948489785194397,
29886,-0.012603831477463245,-0.007827538065612316,0.9870142936706543,
29896,-9.582422535459045e-06,0.02534610591828823,0.9754728674888611,
29906,-0.0024107538629323244,0.021895742043852806,0.9601283669471741,
29916,0.0048658233135938644,0.03423359990119934,0.9879162907600403,
29926,-0.00030443197465501726,0.007117029745131731,0.9634733200073242,
29936,0.0002738641342148185,-0.008872036822140217,0.9745984673500061,
29946,-0.0014808691339567304,0.009285430423915386,0.9345278143882751,
29956,-0.011492582969367504,-0.020852528512477875,0.9857526421546936,
29966,0.001284186728298664,0.08751334249973297,0.9626948237419128,
29976,-0.006934278644621372,0.03373904153704643,0.9946455955505371,
29986,0.018182197585701942,-0.01640705205500126,0.9996801614761353,
29996,-0.003165696980431676,-0.02496977150440216,0.9949670433998108,
30006,-0.0054498715326189995,-0.0043324981816112995,0.9896680116653442,
30016,-0.016489218920469284,0.018523868173360825,0.9760091304779053,
30026,-0.006638967897742987,0.020874163135886192,1.0007494688034058,
30036,-0.001691645011305809,0.01580400951206684,1.0059616565704346,
30046,-0.0007838428718969226,0.007364821620285511,1.021681308746338,
30056,-0.0012743205297738314,-0.0012432828079909086,0.9962025880813599,
30066,-0.019708065316081047,-0.012659694999456406,1.0157158374786377,
30076,0.0070185428485274315,0.015798252075910568,1.0062166452407837,
30086,-0.005349650047719479,0.00859605148434639,0.985980749130249,
30096,-0.0014217882417142391,-0.0055944970808923244,1.0151361227035522,
30106,-0.010287150740623474,0.010470879264175892,1.002873182296753,
30116,-0.004780860152095556,0.02081475965678692,0.9913804531097412,
30126,-0.017594406381249428,0.015025556087493896,0.9787130951881409,
30136,-0.007640521973371506,0.004045185633003712,1.0136651992797852,
30146,-0.00388378300704062,0.0169705580919981,0.9747503399848938,
30156,0.0003964842762798071,0.010223149321973324,1.0206443071365356,
30166,-0.014419516548514366,0.020935339853167534,1.0083017349243164,
30176,-0.012766479514539242,0.010541770607233047,1.032182216644287,
30186,-0.014535004273056984,-0.0004646987363230437,1.0186301469802856,
30196,-0.01882685348391533,-0.02126459963619709,1.0461821556091309,
30206,-0.001474859076552093,0.01896524615585804,1.0155683755874634,
30216,-0.007530657108873129,0.003141243476420641,0.9755812287330627,
30226,-0.005419509019702673,-0.00426910724490881,0.9924211502075195,
30236,-0.009350769221782684,0.006258134730160236,1.00155770778656,
30246,0.0027509478386491537,0.014322563074529171,0.9969912767410278,
30256,-0.005757322069257498,0.007445621304214001,0.9908854365348816,
30266,-0.0018955264240503311,0.010927890427410603,1.0157673358917236,
30276,-0.006221195217221975,-0.0029215861577540636,1.0067378282546997,
30286,-0.010156285017728806,-0.0008615712285973132,1.0201945304870605,
30296,-0.008412688039243221,0.024740807712078094,0.9955805540084839,
30306,-0.018810387700796127,0.01672222837805748,1.0496256351470947,
30316,-0.024948641657829285,-0.005943272728472948,0.9981607794761658,
30326,-0.01903434842824936,-0.006882662419229746,1.0288206338882446,
30336,-0.001531650428660214,0.01809064857661724,1.0008517503738403,
30346,0.0043612634763121605,0.01955275982618332,1.0053149461746216,
30356,0.005073165521025658,0.002407899359241128,0.9929611682891846,
30366,0.004769366700202227,-0.008303418755531311,0.9989140629768372,
30376,0.004213816020637751,0.008894035592675209,1.008133888244629,
30386,-0.011149455793201923,0.010368126444518566,0.9761322140693665,
30396,-0.007327366154640913,0.00019131635781377554,1.0076701641082764,
30406,-0.010760579258203506,-0.013716780580580235,1.0055418014526367,
30416,-0.007167951203882694,0.007730580400675535,1.0064606666564941,
30426,-0.002971893409267068,0.0046083140186965466,0.9897948503494263,
30436,-0.003928727470338345,-0.0077257403172552586,0.9954453110694885,
30446,0.0034249729942530394,-0.00813364889472723,1.0018763542175293,
30456,-0.016183504834771156,-0.00579451397061348,0.9985442757606506,
30466,-0.0013823898043483496,0.012424396350979805,1.0046672821044922,
30476,-0.008406909182667732,0.025156669318675995,0.9990242719650269,
30486,-0.012243482284247875,0.02917497418820858,0.9793145060539246,
30496,-0.01659022644162178,0.007590625900775194,0.948939323425293,
30506,-0.010690495371818542,-0.02365812286734581,0.9916514158248901,
30516,-0.003577469615265727,0.029151177033782005,0.9730047583580017,
30526,5.186347334529273e-05,0.02695551887154579,1.0097917318344116,
30536,0.010525872930884361,-0.0056833806447684765,0.9967074990272522,
30546,0.0038349332753568888,-0.02809213288128376,1.0100176334381104,
30556,0.010544630698859692,-0.012319258414208889,1.0259783267974854,
30566,-0.01800992339849472,0.014432796277105808,0.9772487282752991,
30576,-0.010746903717517853,0.0005676611908711493,0.9795981645584106,
30586,-0.008601979352533817,0.008700652979314327,0.9810008406639099,
30596,-0.009053547866642475,0.00844851415604353,0.9938600659370422,
30606,0.003377422457560897,0.007536058779805899,0.9973947405815125,
30616,0.005909889470785856,-0.0010507238330319524,0.9803676009178162,
30626,0.013151940889656544,-0.011508564464747906,1.0308610200881958,
30636,-0.0070868246257305145,0.0012389632174745202,0.9787447452545166,
30646,0.00043272163020446897,-0.02252890355885029,1.00779128074646,
30656,-0.012125177308917046,0.0026977830566465855,0.9972034692764282,
30666,-0.015031320042908192,0.003717868821695447,1.0226112604141235,
30676,-0.0075138830579817295,-0.0034510621335357428,1.0041289329528809,
30686,-0.006325357593595982,-0.02292628586292267,1.0147833824157715,
30696,0.0010049190605059266,0.014595044776797295,1.0062061548233032,
30706,-0.006942207459360361,0.015235001221299171,0.9874199628829956,
30716,-0.012861661612987518,-0.007055363152176142,1.0039243698120117,
30726,-0.011152878403663635,0.012765178456902504,0.9954432845115662,
30736,-0.01917892135679722,0.010902058333158493,1.0081127882003784,
30746,-0.0014864091062918305,-0.003309603314846754,0.9940333366394043,
30756,-0.006352780386805534,-0.015737442299723625,1.008216381072998,
30766,0.00011765390809159726,0.0005061153206042945,1.0108393430709839,
30776,-0.007222651969641447,0.02372218295931816,0.987755298614502,
30786,-0.01228705607354641,0.02426004968583584,0.9798763394355774,
30796,-0.014778484590351582,0.03101516142487526,0.9562860131263733,
30806,-0.013464180752635002,-0.0004981913953088224,0.9953499436378479,
30816,-0.010283342562615871,0.009882992133498192,0.9806323051452637,
30826,0.0063220965676009655,-0.020819036290049553,1.0024938583374023,
30836,-0.003959210589528084,0.004163539502769709,1.005613923072815,
30846,-4.742993041872978e-05,-0.005556895397603512,0.9823708534240723,
30856,0.002060026628896594,0.005315770860761404,0.9739357829093933,
30866,-0.008230486884713173,0.010236300528049469,0.9705873131752014,
30876,-0.005356955341994762,0.005467087961733341,1.0077462196350098,
30886,-0.007004422135651112,0.00872703269124031,0.9843868017196655,
30896,-0.0033133355900645256,-0.02449627034366131,1.008650779724121,
30906,0.0066244774498045444,0.01346378680318594,0.9950844645500183,
30916,-0.01763896271586418,-0.00850747898221016,1.0271683931350708,
30926,-0.005737542640417814,-0.008508831262588501,1.01608145236969,
30936,-0.010741336271166801,-0.0001056494438671507,0.9895243048667908,
30946,0.0016228265594691038,0.011307391338050365,1.0324639081954956,
30956,-0.0036579174920916557,0.021262725815176964,0.9923136830329895,
30966,-0.0005834914045408368,0.0005485526635311544,0.9970836639404297,
30976,-0.010613106191158295,0.0030046780593693256,0.9948750138282776,
30986,-0.0154240308329463,-0.0037300691474229097,0.9955201148986816,
30996,-0.011518796905875206,0.02794518880546093,1.0060523748397827,
31006,-0.010265530087053776,-0.01938517950475216,0.9955445528030396,
31016,-0.01549574825912714,-0.001053066924214363,1.0237510204315186,
31026,-0.010422635823488235,-0.009850386530160904,0.9922646880149841,
31036,-0.013902953825891018,0.0073199463076889515,0.9983251094818115,
31046,-0.008929168805480003,0.008252245374023914,0.999457061290741,
31056,-0.007999008521437645,0.002517120912671089,1.00467050075531,
31066,-0.00013696828682441264,0.004932472947984934,0.9895521998405457,
31076,-0.008752250112593174,-0.004440130200237036,0.9841156005859375,
31086,-0.014611085876822472,0.002338009886443615,0.9823324680328369,
31096,-0.007540919352322817,-0.008388453163206577,0.9911954402923584,
31106,-0.016333168372511864,0.021484695374965668,1.0120463371276855,
31116,-0.006024315487593412,0.022974984720349312,0.9941173195838928,
31126,-0.024801988154649734,0.002342960564419627,1.031236171722412,
31136,-0.006307659670710564,-0.012339374050498009,0.9814617037773132,
31146,-0.004789333790540695,-0.011715266853570938,1.0092747211456299,
31156,0.003341064555570483,-0.0006392824579961598,0.9974974989891052,
31166,-0.012124225497245789,0.0023924843408167362,1.0022910833358765,
31176,-0.0052990722469985485,0.009441530331969261,0.9849600791931152,
31186,-0.01136130653321743,0.003544420236721635,0.9674097895622253,
31196,-0.009055458940565586,-0.00045384050463326275,1.0069531202316284,
31206,-0.014859355054795742,-0.007414428051561117,1.0172232389450073,
31216,-0.020441897213459015,0.017107805237174034,0.9990434646606445,
31226,-0.014767209999263287,0.011860137805342674,0.9996339678764343,
31236,-0.018081000074744225,-0.006792539265006781,1.022474765777588,
31246,-0.016382137313485146,-0.003375081578269601,1.0050203800201416,
31256,-0.008880590088665485,-0.015674296766519547,0.9942232370376587,
31266,0.009971655905246735,0.02791464701294899,1.0036424398422241,
31276,0.0023402213118970394,-0.013350414112210274,1.005453109741211,
31286,0.0017533809877932072,-0.0014415133045986295,1.0133992433547974,
31296,-0.006339154671877623,0.0005050182226113975,1.0089325904846191,
31306,-0.019371746107935905,-0.008121545426547527,1.0066536664962769,
31316,-0.01319724228233099,0.014485807158052921,1.0033185482025146,
31326,-0.013894734904170036,-0.02455836720764637,1.012176275253296,
31336,-0.02230653539299965,-0.007076574955135584,0.9954719543457031,
31346,-0.01024511270225048,-0.012921493500471115,0.9784022569656372,
31356,-0.012193948961794376,2.466505247866735e-05,1.00490403175354,
31366,-0.002072600182145834,0.023484447970986366,1.0035420656204224,
31376,-0.000992594170384109,0.030838744714856148,1.0080465078353882,
31386,0.02355981431901455,-0.014775711111724377,1.005347490310669,
31396,-0.01423334889113903,-0.035193782299757004,0.9996877908706665,
31406,-0.014757239259779453,-4.088497007614933e-05,0.991557776927948,
31416,-0.008052840828895569,0.00920789409428835,1.0060492753982544,
31426,-0.01127217523753643,0.012393027544021606,1.0005732774734497,
31436,-0.016536615788936615,0.00032490663579665124,0.9748756885528564,
31446,-0.014132404699921608,0.00018040764553006738,1.0084028244018555,
31456,-0.0019070523558184505,-0.007037331350147724,1.0071641206741333,
31466,-0.02607438899576664,-0.02883250080049038,1.0093375444412231,
31476,-0.00039591576205566525,0.026620473712682724,1.0021960735321045,
31486,-0.014248921535909176,0.036422938108444214,0.9846501350402832,
31496,0.01913318783044815,-0.012680338695645332,1.0299780368804932,
31506,-0.003982052206993103,-0.029382221400737762,0.954033613204956,
31516,-0.021235868334770203,-0.003815277246758342,0.9969313740730286,
31526,-0.001334207016043365,0.040815431624650955,1.0205644369125366,
31536,0.00011957309470744804,-0.006104879546910524,0.9913427829742432,
31546,-0.02163003757596016,-0.010725568048655987,1.0339164733886719,
31556,-0.0001241727004526183,-0.0038642955478280783,0.9880199432373047,
31566,0.005394856445491314,-0.010682271793484688,0.9818738102912903,
31576,0.009313544258475304,0.03553671017289162,0.9832217693328857,
31586,-0.00040037144208326936,0.03584260866045952,0.9770404696464539,
31596,0.0028655328787863255,0.028086461126804352,0.9805067181587219,
31606,-0.008118456229567528,-0.02199845388531685,0.9969840049743652,
31616,-0.017556006088852882,-0.001250644912943244,0.9995970726013184,
31626,-0.005119238048791885,-0.005242736078798771,0.9895033240318298,
31636,-0.021778076887130737,-0.006745032500475645,0.9799084067344666,
31646,-0.011052161455154419,0.0005620734882541001,0.965767502784729,
31656,-0.002554054604843259,-0.0026482034008949995,0.9823787212371826,
31666,-0.008392821066081524,-0.0012465780600905418,1.001093864440918,
31676,-0.008927464485168457,0.018548041582107544,0.9854416251182556,
31686,-0.0095025934278965,0.0040390947833657265,0.982799232006073,
31696,-0.007404904812574387,-0.03105062246322632,1.0021650791168213,
31706,-0.005714988335967064,0.029848573729395866,0.9850804805755615,
31716,-0.006987584754824638,0.00411208113655448,0.9731469750404358,
31726,-0.00455766124650836,-0.0010988051071763039,1.0030229091644287,
31736,-0.014614935964345932,0.00546749122440815,0.9504711031913757,
31746,-0.012446360662579536,-0.014314842410385609,0.993050754070282,
31756,0.0016972701996564865,0.0296027809381485,0.9996936917304993,
31766,-0.006464886013418436,0.010874205268919468,0.977461040019989,
31776,-0.00033657156745903194,0.04035365581512451,0.9924636483192444,
31786,0.0013052320573478937,-0.037507060915231705,1.0274120569229126,
31796,-0.002746470971032977,-0.030995603650808334,0.9699598550796509,
31806,-0.00859552901238203,0.011015665717422962,1.0065233707427979,
31816,-0.012376246973872185,-0.013389539904892445,0.973604679107666,
31826,-0.02552725560963154,-0.0023164229933172464,0.9977174401283264,
31836,-0.010427896864712238,-0.004434088245034218,0.9940113425254822,
31846,-0.004750868305563927,-0.021310588344931602,0.9827548265457153,
31856,0.009487283416092396,-0.019506210461258888,1.0035045146942139,
31866,-0.0034794993698596954,-0.0006522280746139586,1.0140278339385986,
31876,-0.011329525150358677,0.014116729609668255,0.9732269644737244,
31886,-0.005312171299010515,-0.011268836446106434,1.009116291999817,
31896,-0.007811490446329117,0.002934302669018507,0.9915056824684143,
31906,-0.008756037801504135,-0.0026446806732565165,1.0059888362884521,
31916,-0.010144849307835102,-0.007283925544470549,1.004958987236023,
31926,-0.002389272442087531,-0.026320865377783775,1.0040613412857056,
31936,-0.006330067291855812,-0.011639922857284546,1.0117067098617554,
31946,0.011008692905306816,-0.00046083953930065036,1.0057237148284912,
31956,0.0011811191216111183,-0.0138139259070158,0.9996157288551331,
31966,-0.00010306369949830696,-0.020702695474028587,1.000598430633545,
31976,-0.011591514572501183,0.017976857721805573,0.9976442456245422,
31986,-0.011697438545525074,0.023356784135103226,1.0084041357040405,
31996,-0.010511883534491062,-0.004265688359737396,0.9692338705062866,
32006,-0.030902577564120293,-0.05261319503188133,0.9996252059936523,
32016,0.001107682823203504,0.008605103008449078,1.0027494430541992,
32026,-0.010291432030498981,0.016899116337299347,0.9632988572120667,
32036,-0.00834350660443306,0.01533869095146656,0.9726247191429138,
32046,0.006723610684275627,0.02246142365038395,1.0272318124771118,
32056,-0.012014356441795826,-0.03689240664243698,1.0174046754837036,
32066,-0.021634668111801147,0.04657062143087387,0.9870630502700806,
32076,0.027780618518590927,0.013767898082733154,1.0121709108352661,
32086,0.006935106124728918,-0.022495483979582787,1.0069164037704468,
32096,0.0025758559349924326,0.0011895539937540889,0.979217529296875,
32106,-0.008106514811515808,-0.0021612404379993677,0.9984807372093201,
32116,-0.0149376280605793,-0.015042194165289402,0.986731767654419,
32126,-0.00501892389729619,-0.021136343479156494,1.0240570306777954,
32136,-0.0160269346088171,-0.000984717975370586,1.0064564943313599,
32146,-0.008672433905303478,-0.01275103259831667,0.9896643757820129,
32156,-0.00648391293361783,-0.019106142222881317,0.9958640933036804,
32166,0.0019045561784878373,0.002547027776017785,1.0025869607925415,
32176,-0.010344072245061398,-0.006553020793944597,0.9891167879104614,
32186,0.014565572142601013,-0.01196231134235859,1.0095512866973877,
32196,-0.01266345102339983,-0.012177996337413788,0.9829867482185364,
32206,-0.024350639432668686,0.0015490077203139663,0.9942684173583984,
32216,-0.0020889968145638704,0.019679445773363113,0.9982852935791016,
32226,-0.014178812503814697,-0.01532297395169735,0.9702101349830627,
32236,-0.013602868653833866,0.003250312991440296,1.0029640197753906,
32246,0.008912572637200356,0.01809375174343586,0.9983124136924744,
32256,-0.02697460912168026,-0.010448683053255081,0.9988074898719788,
32266,-0.005390701815485954,0.004258915316313505,0.9581859707832336,
32276,-0.001576946466229856,-0.015715857967734337,1.011452078819275,
32286,-0.019689034670591354,-0.0016044290969148278,0.982731819152832,
32296,-0.014812338165938854,-0.001858928008005023,0.9810548424720764,
32306,-0.015461674891412258,0.004256586078554392,0.9840717911720276,
32316,-0.0066831656731665134,-0.02399674989283085,0.9933665990829468,
32326,-0.012165144085884094,-0.014848588034510612,0.9995633363723755,
32336,-0.0017316016601398587,-0.018266230821609497,1.0064696073532104,
32346,0.0018931376980617642,-0.021048659458756447,1.0085561275482178,
32356,0.006124225445091724,-0.020933860912919044,1.0369478464126587,
32366,-0.008144761435687542,0.00755153177306056,0.9930213689804077,
32376,-0.006552748382091522,0.04090447723865509,1.0352153778076172,
32386,-0.013024303130805492,-0.021656299009919167,1.018649935722351,
32396,-0.01646544598042965,-0.02555539831519127,1.0039992332458496,
32406,-0.002119733253493905,-0.0016389517113566399,0.9946898818016052,
32416,-0.0003768633760046214,-0.013296011835336685,1.004439353942871,
32426,-0.010020948015153408,-0.016205985099077225,0.9964572191238403,
32436,-0.00024659052724018693,-0.015943482518196106,1.0038398504257202,
32446,-0.011519472114741802,0.0077955047599971294,1.0045957565307617,
32456,-0.013633057475090027,-0.004652800969779491,0.9998569488525391,
32466,-0.010925057344138622,-0.005637811031192541,0.9988869428634644,
32476,-0.005888530518859625,0.03297015279531479,0.9767794609069824,
32486,-0.007661530748009682,0.012183453887701035,0.9898662567138672,
32496,0.01461084745824337,0.011117430403828621,1.0200399160385132,
32506,-0.012886098586022854,-0.026385484263300896,0.9659693837165833,
32516,-0.001306692836806178,-0.01822386123239994,0.992041289806366,
32526,7.170717435656115e-05,0.016751475632190704,1.0054118633270264,
32536,-0.015611212700605392,0.01739564724266529,0.9968352913856506,
32546,-0.005163534078747034,0.011463858187198639,0.9833162426948547,
32556,-0.020857520401477814,-0.04558072239160538,1.0145368576049805,
32566,0.017761800438165665,-0.013777824118733406,0.9892888069152832,
32576,-0.001386928604915738,0.01790735311806202,0.9805931448936462,
32586,-0.0037270684260874987,-0.002704470418393612,0.9862741827964783,
32596,-0.005895515438169241,-0.016916316002607346,0.9999710321426392,
32606,-0.0001495677570346743,-0.017352035269141197,1.0011166334152222,
32616,-0.0020039300434291363,-0.018290095031261444,1.00521981716156,
32626,-0.007216366473585367,-0.01256954949349165,0.9982293844223022,
32636,0.008810619823634624,-0.009225049056112766,0.996849000453949,
32646,-0.01897425949573517,-0.014555808156728745,0.9733302593231201,
32656,-0.01019065361469984,0.012045142240822315,0.9994556903839111,
32666,-0.0020724500063806772,0.028136448934674263,1.009389042854309,
32676,-0.009177128784358501,-0.007656238507479429,1.0226616859436035,
32686,0.02087586186826229,0.006288346368819475,1.016058325767517,
32696,0.0006520433817058802,-0.019945776090025902,0.9979209303855896,
32706,0.0021218042820692062,-0.0007801067549735308,0.9950714111328125,
32716,-0.012400928884744644,0.017583714798092842,0.9858580827713013,
32726,-0.012577290646731853,-0.008846991695463657,0.9691554307937622,
32736,-0.013705872930586338,-0.006138836964964867,1.0197124481201172,
32746,-0.021547872573137283,-0.01922190934419632,1.0009691715240479,
32756,-0.008443264290690422,0.04765339568257332,0.9716382622718811,
32766,-0.009114167653024197,0.0015920207370072603,0.9964402914047241,
32776,-0.014812645502388477,-0.0228902418166399,0.9812961220741272,
32786,0.0017343505751341581,-0.022004012018442154,0.9795374870300293,
32796,-0.0048689753748476505,-0.0036919652484357357,0.9919726252555847,
32806,-0.010700375773012638,-0.006842172704637051,0.9760879874229431,
32816,-0.007298784796148539,-0.023855531588196754,0.9896690845489502,
32826,-0.010245129466056824,-0.006257727742195129,1.0026068687438965,
32836,-0.0029071129392832518,-0.004633618984371424,0.9794681668281555,
32846,0.0006035782862454653,0.0019367003114894032,0.9984970092773438,
32856,-3.1240193493431434e-05,-0.024705875664949417,1.0000829696655273,
32866,-0.009321046993136406,-0.030962523072957993,0.9790700674057007,
32876,0.008718141354620457,0.07053153961896896,0.993198037147522,
32886,-0.02361263334751129,0.005578034091740847,0.974218487739563,
32896,-0.003627354744821787,-0.01656363718211651,1.0042275190353394,
32906,0.02735716849565506,0.02199898101389408,1.008599877357483,
32916,0.002975163981318474,0.008397256024181843,0.9727469682693481,
32926,0.0036525039467960596,0.00279595865868032,1.0101659297943115,
32936,-0.008020514622330666,-0.012452822178602219,0.9565809369087219,
32946,-0.00038984764250926673,-0.028438802808523178,0.9936785101890564,
32956,0.004677572753280401,0.002920362399891019,0.9965338706970215,
32966,-0.009390993043780327,-0.00023125187726691365,0.987872302532196,
32976,-0.012323188595473766,0.010389769449830055,0.9735732078552246,
32986,0.005346474703401327,-0.023469140753149986,1.0238312482833862,
32996,-0.005132661666721106,-0.018300039693713188,0.9950999617576599,
33006,-0.0022318107075989246,0.00034582606167532504,0.9950106143951416,
33016,0.0012489556102082133,0.013965358957648277,0.986566960811615,
33026,0.006661146879196167,-0.026542942970991135,0.9941412806510925,
33036,-0.0026951918844133615,0.0015200109919533134,0.986782968044281,
33046,0.001743273576721549,-0.01008332334458828,1.0064793825149536,
33056,0.0024176258593797684,-0.008707012049853802,1.0235811471939087,
33066,-0.006678892765194178,0.01175635401159525,1.008590579032898,
33076,-0.007694878615438938,-0.009943104349076748,1.011500358581543,
33086,-0.00534398527815938,-0.0018539445009082556,1.016479730606079,
33096,-0.01289273053407669,-0.019208693876862526,1.0024086236953735,
33106,-0.008272454142570496,0.0020235530100762844,1.01289701461792,
33116,-0.0010861920891329646,0.01292344182729721,0.9884030222892761,
33126,-0.023534657433629036,-0.007684515789151192,1.0079724788665771,
33136,0.005633605178445578,-0.0037558472249656916,1.0639512538909912,
33146,0.0049190036952495575,-0.02003331482410431,0.9993663430213928,
33156,-0.005963033530861139,0.007444628980010748,1.009753942489624,
33166,0.0015699436189606786,0.0310651995241642,0.9670409560203552,
33176,0.011682255193591118,-0.027559474110603333,1.0032191276550293,
33186,-0.004444530233740807,-0.023362912237644196,1.0077495574951172,
33196,-0.007612323388457298,-0.01199242752045393,1.016355276107788,
33206,-0.014831137843430042,0.006346707697957754,0.9831836223602295,
33216,-0.003342426847666502,-0.006181769073009491,1.0130006074905396,
33226,0.0015987938968464732,0.008407636545598507,0.9882231950759888,
33236,-0.0037770201452076435,-0.003192956792190671,1.0127816200256348,
33246,-0.004949265159666538,-0.0063657560385763645,1.005867838859558,
33256,-0.009757723659276962,-0.026538316160440445,0.9977177381515503,
33266,-0.010704035870730877,-0.006327582523226738,1.006182312965393,
33276,-0.009503759443759918,-0.015883445739746094,0.9767752289772034,
33286,-0.015540417283773422,-0.016201581805944443,1.0061161518096924,
33296,0.03531624376773834,-0.008206064812839031,1.0116291046142578,
33306,0.005610363092273474,-0.01087381225079298,1.0119915008544922,
33316,0.012109456583857536,0.06997489184141159,0.9930132031440735,
33326,-0.004045264329761267,0.00019716563110705465,0.9404948949813843,
33336,-0.0013868166133761406,-0.025762150064110756,0.9835904240608215,
33346,6.0378475609468296e-05,-0.000436460948549211,0.9880806803703308,
33356,0.001956369262188673,-0.016961876302957535,0.9871246814727783,
33366,0.00014183101302478462,-0.01807011105120182,0.9919402003288269,
33376,-0.004829966463148594,-0.01617724634706974,1.0050963163375854,
33386,0.006032770499587059,-0.014150251634418964,0.9859546422958374,
33396,-0.003639795584604144,-0.0019424320198595524,0.9873590469360352,
33406,0.0036952632945030928,-0.015157938003540039,1.0111085176467896,
33416,-0.013933842070400715,-0.01593509130179882,1.008217215538025,
33426,-0.011673491448163986,0.011935842223465443,0.9978227615356445,
33436,-0.0039057431276887655,-0.016967367380857468,0.9881817102432251,
33446,-0.014198584482073784,-0.02003837563097477,1.0087612867355347,
33456,0.001767200417816639,-0.0015209882985800505,1.0092134475708008,
33466,-0.006863338872790337,-0.015343981795012951,1.0070990324020386,
33476,0.005596245173364878,-0.010019485838711262,1.027915596961975,
33486,0.0052429609932005405,0.026467332616448402,1.000041127204895,
33496,-0.006239504087716341,-0.007252770010381937,1.0196247100830078,
33506,0.0009657997288741171,-5.887717998120934e-05,0.9602617621421814,
33516,-0.017592132091522217,-0.02029169537127018,1.0002079010009766,
33526,-0.004520130343735218,0.03846906125545502,1.0009344816207886,
33536,0.0018336843932047486,-0.0048080249689519405,1.0090181827545166,
33546,-0.025754299014806747,-0.03493737429380417,1.0244667530059814,
33556,-0.001200830563902855,-0.016685089096426964,0.9991733431816101,
33566,-0.003972538281232119,-0.019222408533096313,0.9953315854072571,
33576,0.000644843967165798,-0.014953182078897953,1.024200201034546,
33586,-0.0012661574874073267,-0.016424011439085007,1.0329710245132446,
33596,-0.0075639281421899796,0.006811170838773251,0.9684293866157532,
33606,-0.006201627664268017,0.0064684259705245495,0.989806056022644,
33616,0.009720804169774055,0.007617364637553692,0.9935044646263123,
33626,0.0018752333708107471,-0.008757993578910828,1.0139065980911255,
33636,-0.0007020254270173609,0.0017488973680883646,1.0011017322540283,
33646,-0.014711335301399231,-0.025246087461709976,1.0194646120071411,
33656,-0.010180030949413776,0.038477540016174316,0.9910759925842285,
33666,-0.0028143085073679686,0.006006346084177494,1.0503251552581787,
33676,-3.9122045563999563e-05,-0.04859891161322594,1.0185474157333374,
33686,0.013934370130300522,-0.019177984446287155,1.007668375968933,
33696,-0.008610242046415806,-0.010237461887300014,0.9788514971733093,
33706,-0.005205391440540552,-0.01707889698445797,0.9847530722618103,
33716,0.0021801157854497433,-0.01392728928476572,1.0433984994888306,
33726,-0.004711873829364777,0.006096324417740107,0.9945971369743347,
33736,-0.004284358583390713,-0.0048957751132547855,0.9908589720726013,
33746,-0.0217375960201025,-0.004967513028532267,0.9931899905204773,
33756,-0.031004738062620163,-0.028575005009770393,0.978402316570282,
33766,-0.005695668514817953,0.0066989716142416,0.9889435172080994,
33776,0.009177353233098984,0.030987732112407684,0.955889105796814,
33786,-0.022380122914910316,-0.014317983761429787,1.01005220413208,
33796,-0.001083055860362947,0.024738969281315804,0.9683021306991577,
33806,0.013935419730842113,-0.020076174288988113,1.004473328590393,
33816,-0.00553489476442337,-0.024139229208230972,1.007176160812378,
33826,0.0015343907289206982,-0.011965611949563026,1.0140471458435059,
33836,0.0040991357527673244,-0.005507206544280052,0.9905672073364258,
33846,-0.007173870224505663,-0.011459553614258766,0.9429097175598145,
33856,-0.012978998944163322,-0.019334198907017708,0.9730761647224426,
33866,-0.006874652113765478,0.02303183265030384,0.9928837418556213,
33876,-0.013942476361989975,-0.0202229842543602,1.0115865468978882,
33886,0.0018270849250257015,-0.0409429557621479,1.0080368518829346,
33896,0.001499877660535276,-0.005071735940873623,0.9662529826164246,
33906,-0.010433146730065346,0.032610975205898285,0.9734064936637878,
33916,0.009003219194710255,0.03647638112306595,0.9871699810028076,
33926,0.022814670577645302,0.00922377035021782,0.9820851683616638,
33936,0.013273821212351322,-0.012709429487586021,0.9625263214111328,
33946,0.010024643503129482,0.004963339306414127,0.9634350538253784,
33956,0.008992825634777546,-0.007610343862324953,0.9728137254714966,
33966,-0.01598326861858368,0.008885166607797146,0.9750455617904663,
33976,-0.0007879506447352469,-0.01299611572176218,0.9797475934028625,
33986,-0.006116471253335476,0.01824991963803768,0.9963623881340027,
33996,-0.012009878642857075,-0.03166954219341278,0.97618168592453,
34006,-0.015575326047837734,-0.009481946937739849,0.9941074252128601,
34016,0.009986639022827148,0.03712603449821472,0.9685888886451721,
34026,-0.015808891505002975,-0.011970640160143375,0.9982282519340515,
34036,0.004090361297130585,-0.0006002028821967542,0.9969483017921448,
34046,0.01956566981971264,-0.010443679988384247,0.9961997270584106,
34056,-0.0012934127589687705,-0.005576987750828266,0.9875831604003906,
34066,-0.006738102529197931,-0.011336038820445538,1.0035983324050903,
34076,-0.010888944379985332,0.012039422057569027,1.0111382007598877,
34086,-0.006076914723962545,0.008986021392047405,0.9858638048171997,
34096,-0.007461619563400745,0.00046630314318463206,1.0304996967315674,
34106,0.006843585520982742,-0.01260471809655428,1.0057259798049927,
34116,-0.012231609784066677,-0.038853056728839874,1.0122075080871582,
34126,0.00977092795073986,-0.007290307432413101,1.0195543766021729,
34136,-0.011764411814510822,0.013370501808822155,1.0074453353881836,
34146,0.006491460371762514,0.026907360181212425,0.9942277669906616,
34156,0.022248243913054466,0.002939112251624465,0.9730817079544067,
34166,0.007547543849796057,-0.031465545296669006,0.998375654220581,
34176,-0.0033622407354414463,0.001291811466217041,1.0043576955795288,
34186,0.003016230184584856,-0.025649776682257652,1.0370525121688843,
34196,-0.001898386748507619,-0.014388684183359146,1.0239297151565552,
34206,0.010170938447117805,0.01108863577246666,1.0344910621643066,
34216,0.00453466409817338,0.0026816397439688444,1.009819746017456,
34226,0.001344248652458191,-0.017526693642139435,1.0255208015441895,
34236,0.011954398825764656,0.04851311817765236,1.001099944114685,
34246,0.00195913459174335,0.006148854270577431,1.002271056175232,
34256,0.0006642467342317104,-0.009509846568107605,1.0632997751235962,
34266,0.00788811780512333,0.016088923439383507,1.0109363794326782,
34276,-0.013589239679276943,0.007086180150508881,1.0143511295318604,
34286,0.0059627965092659,-0.03441709280014038,1.0355204343795776,
34296,0.0007814359851181507,-0.01370600238442421,1.057105541229248,
34306,0.001848400803282857,-0.022923920303583145,1.0223218202590942,
34316,0.00016627383593004197,-0.009001832455396652,1.0296764373779297,
34326,-0.007703572511672974,-0.023136669769883156,1.0198770761489868,
34336,-0.0030334522016346455,0.012130466289818287,1.0122244358062744,
34346,0.012736492790281773,-0.0032986069563776255,1.0440484285354614,
34356,0.016911782324314117,-0.020527174696326256,1.0294276475906372,
34366,-0.0035663084127008915,0.03384917974472046,0.9698694348335266,
34376,0.01989683322608471,-0.011134699918329716,1.0179921388626099,
34386,-0.0029411413706839085,-0.02447568252682686,1.020563006401062,
34396,0.006991216912865639,-0.01963646523654461,1.0243860483169556,
34406,0.006184704136103392,-0.00810864195227623,1.0315663814544678,
34416,0.0018565681530162692,-0.003819049568846822,1.0083129405975342,
34426,0.0038240202702581882,-0.008264134638011456,0.9930015802383423,
34436,0.027678387239575386,0.009991547092795372,1.0316230058670044,
34446,0.012585049495100975,-0.024083873257040977,1.0085009336471558,
34456,0.006120357662439346,0.01961088366806507,1.007751226425171,
34466,-0.011741980910301208,0.0276486799120903,1.0342940092086792,
34476,0.002185695106163621,-0.02144342102110386,0.9838519096374512,
34486,-0.002150998217985034,0.02102339267730713,0.9916654825210571,
34496,0.017146317288279533,-0.024674100801348686,1.0113379955291748,
34506,-0.005010257475078106,-0.008783305995166302,1.0074851512908936,
34516,-0.0014477623626589775,-0.008817506022751331,1.0054746866226196,
34526,0.005771287251263857,0.0034893974661827087,1.0065468549728394,
34536,0.0024144283961504698,0.00987344328314066,0.9934187531471252,
34546,-0.01686597242951393,-0.011167441494762897,0.9802789688110352,
34556,0.013758718967437744,0.0003573705907911062,0.9790154695510864,
34566,0.0007980302325449884,-0.013508407399058342,0.9778547286987305,
34576,0.0009062630124390125,0.01012355461716652,0.9749395847320557,
34586,-0.007773717399686575,-0.02752476930618286,1.0306801795959473,
34596,0.0016925923991948366,-0.017757190391421318,0.9827229380607605,
34606,-0.010216563008725643,0.0044450885616242886,0.9797577261924744,
34616,0.019478753209114075,-0.0030522507149726152,0.9738818407058716,
34626,0.004461060743778944,-0.007904300466179848,0.979311466217041,
34636,0.002060381695628166,-0.005900093819946051,0.9740291237831116,
34646,0.003718375926837325,-0.017721189185976982,0.9984738230705261,
34656,-0.0030166690703481436,0.008874364197254181,1.005491018295288,
34666,-0.019246665760874748,0.004493899643421173,0.949328601360321,
34676,-0.017051605507731438,-0.026285439729690552,0.9783723950386047,
34686,0.008758656680583954,0.07427068054676056,0.9792975783348083,
34696,0.021122455596923828,0.02913864329457283,1.0081713199615479,
34706,0.0022654859349131584,-0.031139912083745003,1.0177477598190308,
34716,0.016109131276607513,-0.00991619098931551,0.995843231678009,
34726,0.0021673026494681835,-0.01234739925712347,0.9885342121124268,
34736,0.004160366952419281,-0.014678165316581726,0.9893223643302917,
34746,0.0037097891326993704,-0.010996277444064617,1.0023818016052246,
34756,0.016867805272340775,-0.007435457780957222,1.0368590354919434,
34766,-0.002563920570537448,-0.00967116467654705,1.0052542686462402,
34776,-0.006598467938601971,0.011614013463258743,0.9802266359329224,
34786,-0.0010375977726653218,0.020634884014725685,0.9585901498794556,
34796,-0.0010887413518503308,0.017701592296361923,0.9922916889190674,
34806,0.003454600926488638,0.058322302997112274,1.0073602199554443,
34816,0.014270417392253876,-0.01181002240628004,1.0510772466659546,
34826,-0.006708753295242786,-0.016712991520762444,1.0192360877990723,
34836,0.0014959905529394746,-0.012289952486753464,1.0196869373321533,
34846,-0.006850485689938068,-0.004030197858810425,1.023038625717163,
34856,-0.004242369905114174,-0.021853240206837654,1.0053671598434448,
34866,-0.01585720106959343,-0.009062517434358597,1.0352180004119873,
34876,0.003249721135944128,-0.00449125561863184,1.0381314754486084,
34886,-0.009587269276380539,0.0031197289936244488,1.0264488458633423,
34896,-0.03411216288805008,-0.002973735798150301,1.0414968729019165,
34906,0.017828024923801422,-0.022694293409585953,1.005098819732666,
34916,-0.003362862626090646,0.007768330629914999,0.9980758428573608,
34926,0.003415555227547884,-0.018466666340827942,1.0160795450210571,
34936,-0.009668156504631042,0.004496664274483919,1.015638828277588,
34946,0.01091078482568264,-0.006875497289001942,0.9917942881584167,
34956,-0.0008200781303457916,-0.017442572861909866,1.026451826095581,
34966,0.014063812792301178,-0.009027671068906784,0.9814237356185913,
34976,-0.01144562941044569,0.005499138496816158,0.9809092879295349,
34986,0.002867515431717038,0.028246687725186348,1.00323486328125,
34996,0.0051656304858624935,-0.002766525372862816,0.977918803691864,
35006,0.0018933411920443177,-0.02357672154903412,0.9863108396530151,
35016,-0.006661791820079088,0.0004997800569981337,0.983511745929718,
35026,0.0006578653119504452,-0.006137528456747532,1.0135531425476074,
35036,-0.004807102493941784,-0.005576637107878923,0.9955773949623108,
35046,0.001030332176014781,-0.013026558794081211,1.0136836767196655,
35056,0.004605383612215519,-0.00014497680240310729,1.021454930305481,
35066,-0.013366269879043102,-0.015992794185876846,1.0020697116851807,
35076,-0.011251354590058327,0.03329027444124222,1.0198371410369873,
35086,-0.014967655763030052,0.014126061461865902,1.0127873420715332,
35096,0.0012848658952862024,-0.02455306611955166,0.9841221570968628,
35106,0.020611310377717018,-0.017428575083613396,1.0071730613708496,
35116,0.007012336980551481,0.008850380778312683,1.0004438161849976,
35126,0.010213449597358704,-0.015392863191664219,0.9925060868263245,
35136,-0.0038857189938426018,0.0067283171229064465,0.9966796040534973,
35146,0.007327992003411055,0.012586736120283604,0.9777044653892517,
35156,0.006598625332117081,-0.0007918213959783316,0.99350506067276,
35166,0.003999768290668726,0.000345810956787318,0.9978470802307129,
35176,-0.00480129849165678,-0.014452459290623665,1.0155441761016846,
35186,-0.006268672179430723,0.02980954386293888,1.0230863094329834,
35196,0.01025064755231142,-0.003986659925431013,0.9942930340766907,
35206,0.0001415380829712376,-0.021328553557395935,1.0146183967590332,
35216,0.010586250573396683,0.03783124312758446,0.9965372681617737,
35226,-0.0015651291469112039,0.010853796266019344,1.0201157331466675,
35236,0.017336171120405197,-0.02289438806474209,0.9994687438011169,
35246,-0.0021757446229457855,-0.018333740532398224,1.0014711618423462,
35256,-0.005270202178508043,-0.010698849335312843,0.99056077003479,
35266,-0.006752339657396078,-0.013781712390482426,0.9692925214767456,
35276,-0.0031910904217511415,-0.011202172376215458,1.0051348209381104,
35286,-0.0013960669748485088,0.04222467914223671,0.9773480892181396,
35296,-0.0140153206884861,-0.013374942354857922,0.9816731810569763,
35306,0.004527337849140167,-0.010827900841832161,1.0343855619430542,
35316,-0.003967178054153919,-0.01940770074725151,1.0154162645339966,
35326,-0.026645252481102943,0.02372070401906967,0.982019305229187,
35336,0.02838825061917305,-0.01419410016387701,1.0159308910369873,
35346,-0.007714132312685251,-0.018800469115376472,0.9936992526054382,
35356,-0.004233839921653271,-0.008672217838466167,0.9839602708816528,
35366,-0.002489978913217783,-0.009864096529781818,0.9979438781738281,
35376,-0.0034007697831839323,0.010693014599382877,0.9903360605239868,
35386,-0.008630076423287392,-0.009089586324989796,0.9978415966033936,
35396,-0.011042676866054535,0.0042222230695188046,1.0431331396102905,
35406,0.014088532887399197,-0.0021662304643541574,1.0380845069885254,
35416,-0.009239147417247295,-0.009262064471840858,0.9942102432250977,
35426,0.01187782734632492,0.04607053101062775,0.9981991052627563,
35436,0.021020421758294106,-0.034992851316928864,1.0386974811553955,
35446,0.023155424743890762,-0.017785849049687386,0.979653537273407,
35456,0.001726111164316535,0.03286658972501755,0.9865266680717468,
35466,-0.003992957528680563,-0.017819814383983612,0.9811047911643982,
35476,-0.006006564944982529,-0.021158315241336823,0.9973941445350647,
35486,-0.003780829720199108,-0.007755189668387175,0.995380163192749,
35496,-0.012522142380475998,-0.008180469274520874,0.9973125457763672,
35506,-0.0013508002739399672,-0.0208098366856575,0.9844605922698975,
35516,-0.007619810756295919,-0.0041900817304849625,0.9870985746383667,
35526,0.003530259244143963,0.005180451553314924,0.952768862247467,
35536,0.0016296164831146598,0.0010378970764577389,0.9830371737480164,
35546,-0.001821615849621594,-0.006571955978870392,0.9828658699989319,
35556,0.00704005965963006,-0.04154880344867706,0.9606314897537231,
35566,0.01642994023859501,0.06235063448548317,1.0128275156021118,
35576,-0.0010315756080672145,0.037064749747514725,0.9768717288970947,
35586,-0.022228606045246124,-0.02134120836853981,1.001752257347107,
35596,0.014787827618420124,-0.003513601841405034,1.0094678401947021,
35606,-0.002903579967096448,0.00842735730111599,0.977541446685791,
35616,-0.008818039670586586,-0.004214251413941383,0.9939272999763489,
35626,0.000640683516394347,0.00811486691236496,0.9793617725372314,
35636,-0.0034369106870144606,-0.0024198205210268497,0.9820877909660339,
35646,-0.00229503121227026,0.0070546516217291355,0.9888193607330322,
35656,-0.003293006680905819,-0.0014407928101718426,1.0004938840866089,
35666,-0.008437715470790863,-0.012052441015839577,1.0082018375396729,
35676,-0.006941724102944136,0.0017689120722934604,1.0152084827423096,
35686,-0.010629394091665745,-0.0031948103569447994,1.000279426574707,
35696,-0.002523762872442603,-0.00835148524492979,1.0172874927520752,
35706,-0.006588570307940245,-0.0013930792920291424,1.0038738250732422,
35716,-0.005457237362861633,-0.012479031458497047,0.9812730550765991,
35726,0.008291119709610939,0.014345357194542885,0.9795187711715698,
35736,0.01318961288779974,-0.008813762106001377,0.9910693764686584,
35746,0.0030859813559800386,-0.013071930967271328,1.0067541599273682,
35756,0.009862243197858334,-0.0012498552678152919,1.027674913406372,
35766,-0.020895011723041534,-0.022280409932136536,1.0064903497695923,
35776,-0.004718510899692774,0.029360178858041763,1.0205141305923462,
35786,-0.0030992922838777304,0.0066047171130776405,0.983035683631897,
35796,0.0015457530971616507,-0.006692501250654459,1.0182385444641113,
35806,0.01554746925830841,-0.02263702265918255,1.0195515155792236,
35816,-0.005144997034221888,-0.004689726512879133,0.9910368919372559,
35826,-0.019685160368680954,0.013543709181249142,1.0176092386245728,
35836,-0.010641503147780895,-0.001093236729502678,0.9470160007476807,
35846,0.010720598511397839,-0.04603645205497742,0.9854942560195923,
35856,-0.009956547990441322,0.013841995038092136,0.9803213477134705,
35866,-0.011140398681163788,0.008611581288278103,1.001225233078003,
35876,-0.009005467407405376,-0.006841606926172972,1.0294610261917114,
35886,-0.025041010230779648,-0.0064577367156744,1.0015779733657837,
35896,-0.008694338612258434,-0.007768915966153145,0.9908236265182495,
35906,-0.012117117643356323,-0.009811973199248314,1.0176488161087036,
35916,-0.005230610258877277,-0.011930585838854313,1.012066125869751,
35926,-0.008190975524485111,-0.023810530081391335,1.0203620195388794,
35936,-0.002815880114212632,-0.007795323152095079,1.0210896730422974,
35946,-0.007213307544589043,1.82252060767496e-05,0.9970200657844543,
35956,0.004407353233546019,0.03042576275765896,0.9776575565338135,
35966,-0.015083422884345055,0.0027034280356019735,0.9805070757865906,
35976,-0.008328794501721859,-0.012956229969859123,1.008216381072998,
35986,-0.006685429252684116,0.009406809695065022,0.984915018081665,
35996,-0.0037687572184950113,0.017313167452812195,1.0032392740249634,
36006,0.0022288921754807234,0.03814578056335449,1.008946180343628,
36016,-0.001549692708067596,-0.024892419576644897,0.9894762635231018,
36026,0.008871076628565788,-0.0007807076908648014,1.0103670358657837,
36036,-0.008443411439657211,-0.006825258024036884,0.9464337825775146,
36046,-0.010621337220072746,-0.018244247883558273,0.9933890700340271,
36056,-0.0009167841635644436,0.006637285929173231,1.02452552318573,
36066,-0.000913966738153249,0.009597555734217167,1.0056192874908447,
36076,-0.008712880313396454,0.021768443286418915,1.0277522802352905,
36086,0.0020471608731895685,-0.0019416824216023088,1.0026931762695312,
36096,0.027768870815634727,-0.018614735454320908,0.9852445721626282,
36106,0.0009323378326371312,0.003937221597880125,0.9716894626617432,
36116,-0.003455346915870905,0.041364312171936035,0.986476480960846,
36126,0.0063912225887179375,0.08930273354053497,1.002336025238037,
36136,-0.017994366586208344,-0.020860150456428528,0.9900530576705933,
36146,-0.019727474078536034,-0.027944138273596764,0.9872495532035828,
36156,0.00012614230217877775,-0.014930185861885548,0.9575862288475037,
36166,-0.011743806302547455,-0.007819108664989471,0.9771032929420471,
36176,0.010150657035410404,0.040258873254060745,1.0122298002243042,
36186,0.0021756452042609453,0.02135089971125126,0.9821062088012695,
36196,-0.0031064206268638372,-0.010052470490336418,1.0242310762405396,
36206,0.02285829186439514,0.003161186818033457,0.9866987466812134,
36216,0.005040784366428852,-0.02347090095281601,0.9764198064804077,
36226,0.008658770471811295,0.03939208760857582,1.007641077041626,
36236,-0.002012458862736821,0.012158113531768322,0.9667320847511292,
36246,-0.031644199043512344,-0.0166685339063406,1.0397671461105347,
36256,0.010505231097340584,-0.014122908934950829,1.003706455230713,
36266,0.008298755623400211,-0.0013856126461178064,0.9781121015548706,
36276,0.004182427190244198,0.03628390654921532,0.9838259816169739,
36286,0.004342654719948769,0.008292271755635738,0.9653422236442566,
36296,-0.005061340983957052,-0.008000236935913563,0.9556700587272644,
36306,0.011731033213436604,-0.00842058751732111,0.9891754388809204,
36316,0.0002090901107294485,-0.007068916689604521,1.0010098218917847,
36326,0.008655893616378307,-0.007610039319843054,0.9885600805282593,
36336,0.0049974508583545685,-0.008890319615602493,0.9894777536392212,
36346,-0.004878812003880739,0.00033259810879826546,0.9695244431495667,
36356,0.0035485620610415936,-0.020084191113710403,1.0050169229507446,
36366,-0.005192879121750593,0.0032957587391138077,1.0195802450180054,
36376,0.00038912100717425346,-0.010757768526673317,0.9796038866043091,
36386,-0.002406894229352474,-0.003651354694738984,1.0056718587875366,
36396,-0.000876425881870091,-0.0016550334403291345,0.997371256351471,
36406,-0.002457841532304883,0.030415071174502373,0.9746943712234497,
36416,0.0038659116253256798,0.028035013005137444,0.9852918386459351,
36426,-0.01469274703413248,0.006721703801304102,0.9399803876876831,
36436,-0.002849241252988577,-0.02088783122599125,0.9772183299064636,
36446,0.006588902324438095,0.03602666035294533,0.9910471439361572,
36456,-0.0014856854686513543,0.013982943259179592,0.9791622161865234,
36466,-0.005309406202286482,0.016640720888972282,1.0273141860961914,
36476,-0.0196378231048584,-0.02219577692449093,0.9947607517242432,
36486,0.018980665132403374,-0.0009585239458829165,1.0215047597885132,
36496,0.015128091908991337,0.015580101870000362,1.0177466869354248,
36506,0.002294669859111309,0.016674108803272247,1.0018993616104126,
36516,0.0060556442476809025,0.027893148362636566,0.9893850088119507,
36526,0.0007691899663768709,0.004646317567676306,1.003541111946106,
36536,0.008983886800706387,0.002077291486784816,1.007797360420227,
36546,0.0019539962522685528,-0.0012643112568184733,0.9902870059013367,
36556,-0.0033597839064896107,-0.012022940441966057,0.9972922205924988,
36566,0.00910317711532116,0.042379263788461685,1.0047893524169922,
36576,0.005964871495962143,-0.010896858759224415,1.002120018005371,
36586,-0.009304001927375793,-0.004426421597599983,1.013606309890747,
36596,-0.0022402475588023663,-0.0035874450113624334,0.9991006851196289,
36606,-0.007700898684561253,0.007353594060987234,1.0078943967819214,
36616,-0.004223776049911976,-0.009570500813424587,1.0187885761260986,
36626,-0.003987983334809542,0.01805197447538376,0.9829781651496887,
36636,0.0017255641287192702,0.0011756580788642168,0.9854271411895752,
36646,-0.007341698743402958,0.0068812561221420765,1.008009672164917,
36656,0.0027722211088985205,0.004260685760527849,0.9932169318199158,
36666,0.004167919047176838,0.002550994511693716,1.0169188976287842,
36676,-0.0049835266545414925,-0.008224901743233204,1.0015697479248047,
36686,-0.005628538317978382,-0.019978564232587814,1.008485198020935,
36696,-0.0046967752277851105,0.01037167850881815,1.0032356977462769,
36706,0.002742822514846921,0.0005145296454429626,0.9907208681106567,
36716,0.0015348705928772688,0.014514774084091187,0.9957628846168518,
36726,0.005122295115143061,0.01208481751382351,0.986356794834137,
36736,0.004519777372479439,-0.005315936170518398,1.0048153400421143,
36746,0.0031482314225286245,0.0026916416827589273,0.9792157411575317,
36756,-0.011458524502813816,-0.00976924691349268,1.0026041269302368,
36766,0.005955785512924194,0.08623320609331131,0.9621627330780029,
36776,0.016370005905628204,0.03571917116641998,0.9869586229324341,
36786,-0.026567773893475533,-0.010472563095390797,1.001630425453186,
36796,-0.003614637302234769,-0.04309163987636566,0.9903993010520935,
36806,0.006180823780596256,-0.018570926040410995,0.9666227102279663,
36816,-0.003377938875928521,0.02595069259405136,0.9737470746040344,
36826,-0.004670147784054279,0.026254741474986076,0.9855255484580994,
36836,0.0044436403550207615,0.009181192144751549,0.99900221824646,
36846,0.006681171711534262,-0.006198011804372072,1.020771861076355,
36856,0.00032734606065787375,-0.009496888145804405,0.9997507929801941,
36866,-0.005556258838623762,-0.010435720905661583,1.0024263858795166,
36876,0.0052803196012973785,0.0018623450305312872,0.9881329536437988,
36886,-0.0006391004426404834,0.008708714507520199,0.9920568466186523,
36896,-0.0013718520058318973,-0.00609202915802598,1.012280821800232,
36906,-0.003801216371357441,0.00033334241015836596,1.0051918029785156,
36916,-0.007899094372987747,0.0057870252057909966,1.0118087530136108,
36926,0.001203514402732253,0.008830719627439976,0.9940471053123474,
36936,-0.0025234066415578127,0.006172513589262962,1.047789216041565,
36946,0.00046727238805033267,-0.011073041707277298,1.0069854259490967,
36956,-0.00684333685785532,-0.002432322595268488,1.0117919445037842,
36966,0.004076121840626001,-0.00246557523496449,1.0111079216003418,
36976,0.002205012599006295,0.014730818569660187,1.000364065170288,
36986,0.007234776392579079,0.012013966217637062,1.002860426902771,
36996,-0.005084166303277016,-0.01321178488433361,1.0079606771469116,
37006,-0.003044574987143278,0.006054416764527559,1.0235873460769653,
37016,-0.002432391280308366,-0.0051581235602498055,0.992965042591095,
37026,-0.01334137562662363,-0.010622293688356876,1.0151031017303467,
37036,0.01857282966375351,0.022378839552402496,1.0043963193893433,
37046,0.005246630869805813,0.004114439245313406,0.9827618598937988,
37056,0.008917569182813168,0.010017112828791142,1.014357566833496,
37066,-0.004415223840624094,0.004237539600580931,0.993987500667572,
37076,-0.009810900315642357,0.005149681121110916,0.9949818849563599,
37086,0.0017745087388902903,-0.01324949599802494,0.9771442413330078,
37096,0.0038174299988895655,-0.00916600413620472,1.0090159177780151,
37106,0.014527097344398499,0.024656958878040314,1.0062190294265747,
37116,-0.000712290988303721,0.05453071743249893,0.9800694584846497,
37126,0.023606639355421066,0.029949765652418137,1.0266380310058594,
37136,0.011326753534376621,-0.010396074503660202,0.975239634513855,
37146,0.0007655128138139844,-0.00931500643491745,0.9830051064491272,
37156,-0.0029274867847561836,0.011102542281150818,1.0068342685699463,
37166,-0.0076730879954993725,-0.00743061862885952,1.0064235925674438,
37176,-0.0031328415498137474,-0.0004206545418128371,1.0171512365341187,
37186,-0.013424810953438282,0.003486775793135166,1.0153263807296753,
37196,0.007646819576621056,-0.002917203586548567,1.0053576231002808,
37206,-0.008387326262891293,-0.007194308564066887,1.0232487916946411,
37216,0.004224742297083139,-0.004624111577868462,1.0018962621688843,
37226,0.004571130499243736,-0.005069286562502384,1.0017673969268799,
37236,-0.005732554942369461,-0.0024522249586880207,0.9984153509140015,
37246,-0.0009994200663641095,-0.0015165555523708463,1.000909447669983,
37256,-0.0036517654079943895,0.013874483294785023,0.9962469339370728,
37266,-0.0027821785770356655,0.01069032121449709,1.0032944679260254,
37276,-0.0028828729409724474,0.015881264582276344,1.000553011894226,
37286,0.0026322396006435156,0.0024956297129392624,0.9950996041297913,
37296,-0.001956343650817871,-0.009347441606223583,1.014334797859192,
37306,0.005434787832200527,0.037460263818502426,0.9886962175369263,
37316,-0.010921930894255638,0.00615100609138608,1.0427935123443604,
37326,-0.012427205219864845,-0.008469915017485619,1.0394160747528076,
37336,-0.007537079509347677,-0.023717263713479042,1.028070092201233,
37346,0.0036718035116791725,0.012194467708468437,1.0368664264678955,
37356,0.008565309457480907,0.07157345116138458,0.976234495639801,
37366,0.014614367857575417,0.012792854569852352,1.0139282941818237,
37376,0.000991683336906135,-0.02077719196677208,0.976007878780365,
37386,0.007449963595718145,-0.03514896333217621,1.0024255514144897,
37396,-0.003253362840041518,0.02351304516196251,1.016119360923767,
37406,-0.004877111874520779,0.021356450393795967,1.0046193599700928,
37416,0.00034660057281143963,0.016732370480895042,1.0197527408599854,
37426,0.0024221367202699184,-0.0046167452819645405,1.026970386505127,
37436,0.01001268532127142,0.012989082373678684,1.0093603134155273,
37446,0.0070822639390826225,0.007277654018253088,1.0025235414505005,
37456,-0.017007896676659584,-0.013699729926884174,1.0087549686431885,
37466,0.0018654876621440053,0.01661471650004387,0.9989340901374817,
37476,0.006098359823226929,0.0010325759649276733,0.9940721392631531,
37486,-0.0033295881003141403,0.0044340514577925205,0.9829224944114685,
37496,-0.009511202573776245,-0.005971953738480806,1.0052390098571777,
37506,-0.00891189556568861,-0.0007442798814736307,0.9944418668746948,
37516,0.005169820040464401,-0.0070432801730930805,1.0018094778060913,
37526,0.00020740505715366453,0.0023233708925545216,1.0023534297943115,
37536,0.020673086866736412,-0.015186533331871033,1.0033762454986572,
37546,0.002331435214728117,-0.0017683932092040777,0.9865310788154602,
37556,0.001916373847052455,-0.0009794841753318906,0.9874783158302307,
37566,-0.0028717825189232826,-0.002522231312468648,1.002636432647705,
37576,-0.005224011372774839,0.02380497194826603,0.9792149662971497,
37586,-0.002226375276222825,-0.001372255152091384,1.0046039819717407,
37596,-0.007896974682807922,0.01372012309730053,0.9904260635375977,
37606,-0.0011634407564997673,0.008441527374088764,0.9585559368133545,
37616,-0.0005830780719406903,0.03020273521542549,0.9735379815101624,
37626,0.012821096926927567,0.038232993334531784,0.9739747643470764,
37636,-0.0052943448536098,-0.0008565690368413925,0.9920910596847534,
37646,0.0007740047876723111,-0.009367103688418865,0.9960142374038696,
37656,-0.02024691551923752,-0.0067659360356628895,0.9341594576835632,
37666,-0.012296161614358425,0.0003146744566038251,0.9911966323852539,
37676,0.00323159946128726,0.046919647604227066,0.9947643280029297,
37686,0.010538680478930473,0.02128078229725361,1.0144062042236328,
37696,0.02072863094508648,0.010590160265564919,1.010602355003357,
37706,0.015275523066520691,-0.010122953914105892,0.9905151128768921,
37716,0.017008038237690926,-0.005689474754035473,1.011492371559143,
37726,-0.004827674478292465,0.01812857948243618,0.9872819781303406,
37736,-0.008603932335972786,0.03755868226289749,1.0068230628967285,
37746,0.008528000675141811,0.04190884530544281,0.9999337196350098,
37756,-0.0009436756372451782,-0.005953719839453697,1.0153836011886597,
37766,0.007544039282947779,0.031454361975193024,1.0131328105926514,
37776,0.004347492009401321,0.027933863922953606,0.9964935183525085,
37786,-0.011885560117661953,0.018054762855172157,0.9745813012123108,
37796,0.014471935108304024,-0.019256487488746643,1.0127161741256714,
37806,0.0142904594540596,-0.01120348647236824,0.9741340279579163,
37816,0.009809158742427826,0.02654474973678589,0.9911618232727051,
37826,-0.007165709510445595,0.01203165389597416,0.9997659921646118,
37836,-0.012995834462344646,0.012425092048943043,0.9800662398338318,
37846,0.0032730428501963615,-0.010752552188932896,1.0146557092666626,
37856,-0.013970484025776386,0.012594642117619514,1.0102086067199707,
37866,-0.0002766750112641603,0.0030166208744049072,0.9938593506813049,
37876,-0.006547152064740658,0.004329526796936989,0.9915075898170471,
37886,0.0005892335320822895,-0.0021568075753748417,0.9972451329231262,
37896,0.0002329036797164008,-0.00023312018311116844,0.9930564165115356,
37906,0.01619775779545307,0.006887413561344147,0.9870679974555969,
37916,0.0024203327484428883,-0.004046340472996235,0.9931020140647888,
37926,0.014039968140423298,0.0034058925230056047,1.0393892526626587,
37936,-0.004625517874956131,-0.010445556603372097,1.0122474431991577,
37946,-0.001715500489808619,0.04101801663637161,0.9911168813705444,
37956,-0.007656658999621868,0.02072872593998909,0.9669374823570251,
37966,-0.016949351876974106,-0.00903951283544302,1.007198691368103,
37976,0.013550964184105396,-0.006244610529392958,1.0210970640182495,
37986,-0.0038554780185222626,0.010279419831931591,1.0073087215423584,
37996,0.015133543871343136,0.055200494825839996,1.0366032123565674,
38006,-0.002935025840997696,0.017327338457107544,0.9899301528930664,
38016,0.03514551743865013,-0.019025519490242004,0.9930567741394043,
38026,0.005813933443278074,0.03482787311077118,0.9844589233398438,
38036,-0.0286630280315876,0.03321481868624687,0.9825184941291809,
38046,-0.005642990581691265,0.033968761563301086,0.9826647043228149,
38056,-0.00333599210716784,-0.013509086333215237,1.0159107446670532,
38066,-0.006486235186457634,0.01635686866939068,1.012357234954834,
38076,0.002580829430371523,0.024169286713004112,1.0155344009399414,
38086,-0.0182720348238945,-0.009991150349378586,1.0172804594039917,
38096,0.006622957531362772,0.007219498977065086,1.0028166770935059,
38106,-0.010361348278820515,-0.008756454102694988,0.9992605447769165,
38116,-0.005319604650139809,-0.001245527295395732,0.9885166883468628,
38126,0.0014562043361365795,0.00746791809797287,0.9997857809066772,
38136,-0.0038611816707998514,0.007515863515436649,0.9869849681854248,
38146,-0.0018585259094834328,0.0035777243319898844,1.0038321018218994,
38156,-0.001221786835230887,0.0008119604317471385,1.009611964225769,
38166,0.00039811685564927757,-0.007344289217144251,0.9988210797309875,
38176,0.0076048607006669044,-0.007991933263838291,1.0132817029953003,
38186,0.0038465908728539944,0.0028082046192139387,0.9981297254562378,
38196,0.007973081432282925,0.008742257952690125,0.9741047620773315,
38206,0.005573674105107784,0.005365757737308741,0.9882397055625916,
38216,-0.008104135282337666,0.00024786131689324975,1.005638837814331,
38226,-0.002883179811760783,-0.016055136919021606,1.005601406097412,
38236,-0.0048021129332482815,0.024235134944319725,1.0180251598358154,
38246,-0.011354993097484112,-0.01909448951482773,0.9684584140777588,
38256,-0.013187501579523087,0.0075533161871135235,0.9646021723747253,
38266,0.003197263227775693,-0.00518648698925972,0.9758613109588623,
38276,0.0038479396607726812,0.013849361799657345,0.9897365570068359,
38286,0.012689911760389805,0.015817590057849884,0.9775725603103638,
38296,-0.0026148210745304823,-0.0035895851906389,0.9667316675186157,
38306,-0.0009332759073004127,0.011471028439700603,0.9964160323143005,
38316,0.0001652196515351534,0.029566965997219086,0.9786666035652161,
38326,-0.0035049954894930124,0.00788965541869402,0.9902809262275696,
38336,0.010118397884070873,0.015667160972952843,0.9937815070152283,
38346,-0.010757816024124622,-0.005106160882860422,0.952481210231781,
38356,-0.015161896124482155,-0.021015461534261703,0.9769014716148376,
38366,-0.00066746975062415,0.05665114149451256,0.9826555252075195,
38376,-0.011470354162156582,0.006248053163290024,0.9813120365142822,
38386,0.004586135037243366,-0.0017099104588851333,1.01519775390625,
38396,0.02121507003903389,-0.004381031729280949,0.9727059602737427,
38406,-0.018075352534651756,0.010236869566142559,0.9934136867523193,
38416,-0.00038373799179680645,0.08781879395246506,0.9632924795150757,
38426,-0.0003375364176463336,-0.00617076875641942,0.9640924334526062,
38436,-0.00967748835682869,-0.023807263001799583,0.9759102463722229,
38446,0.003998983651399612,0.06379499286413193,0.9599732756614685,
38456,-0.024610251188278198,0.015627549961209297,0.9953188300132751,
38466,-0.0006694027688354254,-0.005572339054197073,0.981444776058197,
38476,0.006784927099943161,0.022726839408278465,0.9836543202400208,
38486,-0.008630573749542236,0.006101885810494423,0.9895617961883545,
38496,0.002992300083860755,0.021063504740595818,0.9987740516662598,
38506,-0.005487264599651098,0.0022078044712543488,1.0134875774383545,
38516,-0.01201815064996481,-0.014307787641882896,1.0097088813781738,
38526,0.007139307912439108,0.0020594068337231874,1.0037707090377808,
38536,-0.0022371115628629923,0.005772675387561321,1.0021151304244995,
38546,-0.0004898148472420871,0.018490055575966835,0.9947991371154785,
38556,0.008564013987779617,-0.012226487509906292,1.0020729303359985,
38566,-0.019835473969578743,-0.0013614498311653733,1.0306650400161743,
38576,-0.01530143991112709,0.000273904821369797,1.009565830230713,
38586,-0.01612476445734501,0.03191576153039932,0.9642939567565918,
38596,0.0038442425429821014,0.003951472230255604,0.9815354943275452,
38606,-0.0014942839043214917,0.003037785878404975,0.9939843416213989,
38616,0.00308836973272264,0.000803304195869714,0.9878361821174622,
38626,-0.0024005495943129063,0.00188012036960572,1.0000905990600586,
38636,0.005327379796653986,-0.0004466867248993367,1.0167335271835327,
38646,0.00045005048741586506,-0.012144958600401878,1.006917953491211,
38656,-0.007435800973325968,0.002713233232498169,1.02938711643219,
38666,-0.008511467836797237,-0.008139901794493198,1.013782024383545,
38676,-0.013325070962309837,-0.013955676928162575,1.0295490026474,
38686,0.0027241625357419252,0.007637439761310816,1.0048719644546509,
38696,-0.006303484085947275,0.012698753736913204,0.9947872757911682,
38706,0.0009408291662111878,0.02820311300456524,0.9905023574829102,
38716,-0.008676789700984955,0.023881420493125916,0.9491584300994873,
38726,0.005510797258466482,-0.023304086178541183,0.9963716864585876,
38736,-0.006428000517189503,0.030815651640295982,1.0025982856750488,
38746,-0.0028920520562678576,-0.0014031149912625551,0.987102210521698,
38756,-0.023107018321752548,-0.016404109075665474,1.033206582069397,
38766,0.003693929174914956,-0.008181633427739143,1.0170782804489136,
38776,0.007679958827793598,0.0069107855670154095,1.0170260667800903,
38786,0.006819370202720165,0.01808352768421173,1.0201774835586548,
38796,-0.00957194622606039,0.004210508428514004,1.0048036575317383,
38806,0.00032940448727458715,0.012245118618011475,1.009179711341858,
38816,0.0218440443277359,0.020720921456813812,0.9945548176765442,
38826,0.006618982180953026,0.015254094265401363,1.014565110206604,
38836,0.0033465800806879997,0.0590985007584095,0.9997006058692932,
38846,-0.01371530257165432,0.01371625903993845,1.0363917350769043,
38856,0.00548817403614521,-0.024116506800055504,0.9834694266319275,
38866,0.011677463538944721,0.0038132849149405956,1.0028458833694458,
38876,-0.008062057197093964,0.00744651909917593,1.0145312547683716,
38886,0.013216279447078705,0.0012084436602890491,1.0107085704803467,
38896,0.0008429051376879215,-0.003235400654375553,0.9901762008666992,
38906,-0.009867837652564049,0.017263369634747505,0.9796652793884277,
38916,-0.005894952919334173,0.008333854377269745,0.9924284815788269,
38926,-0.020769990980625153,0.0004054182209074497,1.0015454292297363,
38936,0.0001804340281523764,-0.00842574518173933,0.9987139701843262,
38946,-0.007247685454785824,-0.006778830196708441,1.0354743003845215,
38956,0.0004667073371820152,-0.01050130557268858,1.0178627967834473,
38966,-0.004114966839551926,-0.007488371804356575,1.01593017578125,
38976,0.006609042640775442,-0.005355569068342447,1.0007734298706055,
38986,-0.006223215721547604,0.0087948152795434,1.0081664323806763,
38996,-1.1009439731424209e-05,0.009378005750477314,0.9957178831100464,
39006,-0.011526410467922688,0.004208337981253862,0.9640290141105652,
39016,-0.0026244581677019596,0.0018907771445810795,1.0038620233535767,
39026,-0.011700030416250229,0.015342708677053452,1.0238980054855347,
39036,-0.017575660720467567,-0.015269814990460873,1.0066348314285278,
39046,0.009119078516960144,0.0037337576504796743,1.0150529146194458,
39056,-0.0038613546639680862,-0.015363194048404694,1.0122262239456177,
39066,-5.803579551866278e-05,0.022739538922905922,1.0349377393722534,
39076,-0.005734752397984266,0.00607153819873929,1.0093601942062378,
39086,-0.008228517137467861,-0.019696423783898354,0.9882926344871521,
39096,0.012458124198019505,0.006216390989720821,1.001085877418518,
39106,-0.008136086165904999,0.010829580947756767,1.0060718059539795,
39116,0.0006404389860108495,0.08153262734413147,1.0273011922836304,
39126,0.0034507825039327145,0.02924988605082035,0.9934983253479004,
39136,-0.012910653837025166,-0.03114553540945053,1.0232774019241333,
39146,0.0039579011499881744,0.007496300619095564,1.002047061920166,
39156,-0.01219174638390541,0.027757694944739342,1.0055551528930664,
39166,0.0072211637161672115,-0.009769347496330738,0.9930557608604431,
39176,0.004641825333237648,-0.0039148032665252686,0.9993330240249634,
39186,-0.0029167563188821077,0.0006220458308234811,1.0030635595321655,
39196,0.006382913328707218,0.014100014232099056,1.0103471279144287,
39206,0.0012646232498809695,-0.007682153023779392,1.0101196765899658,
39216,-0.008896243758499622,1.0310311154171359e-05,1.0078781843185425,
39226,-0.007173570804297924,0.0014223611215129495,0.9976842999458313,
39236,-0.00981240812689066,-0.003583875484764576,0.9691935181617737,
39246,-0.0010101789375767112,-0.006208834704011679,0.9773026704788208,
39256,-0.0104175740852952,0.005560120102018118,0.9848315119743347,
39266,-0.006328632589429617,0.0158753152936697,0.9699510931968689,
39276,-0.008088313043117523,0.006830018479377031,1.00072181224823,
39286,-0.007027893792837858,-0.0033829875756055117,1.0009896755218506,
39296,0.004187429789453745,0.009931055828928947,0.9743931889533997,
39306,-0.004417411517351866,0.008198433555662632,1.0254604816436768,
39316,0.00683257170021534,-1.46419697557576e-05,0.9891543388366699,
39326,-0.010393970645964146,-0.007015211042016745,0.9842326045036316,
39336,0.005578703712671995,0.017725853249430656,1.0015168190002441,
39346,-0.0005427764263004065,0.0028211839962750673,1.0042661428451538,
39356,-0.014102154411375523,-0.01092490367591381,0.9901196956634521,
39366,-0.0018257476622238755,0.009248852729797363,1.0287271738052368,
39376,0.007594495080411434,-0.013986518606543541,0.981979250907898,
39386,0.0038053845055401325,-0.008612120524048805,1.008700966835022,
39396,-0.002725620288401842,0.03440484404563904,0.991910457611084,
39406,-0.028578640893101692,-0.01155784074217081,0.9767343997955322,
39416,0.0011403776006773114,-0.011676051653921604,0.9890965223312378,
39426,0.014900868758559227,0.06732512265443802,0.9736813902854919,
39436,-0.019883671775460243,0.005060477182269096,1.0162276029586792,
39446,0.02466069906949997,-0.00801510363817215,1.0045207738876343,
39456,0.004350630566477776,0.0029952547047287226,0.996639609336853,
39466,-0.0013244434958323836,0.007237713783979416,0.9787993431091309,
39476,-0.0007233266369439662,0.002177676884457469,0.9737733006477356,
39486,-0.005765818525105715,-0.0014371660072356462,0.9839333891868591,
39496,-0.0007543264073319733,0.00022040228941477835,1.0053166151046753,
39506,-0.006281563080847263,0.0038222845178097486,0.9961520433425903,
39516,-0.004676798824220896,-0.0001879105984698981,0.9807525873184204,
39526,0.008039272390305996,-0.0016760611906647682,0.9883160591125488,
39536,-0.007614471018314362,-0.0016573983011767268,0.9972885847091675,
39546,-0.009353023953735828,0.013378011994063854,0.9737553000450134,
39556,0.0028841118328273296,0.0044176820665597916,0.9984487295150757,
39566,-0.01503086555749178,0.019395455718040466,1.019337773323059,
39576,-0.010312402620911598,-0.0114262280985713,0.990239143371582,
39586,-0.012377273291349411,0.004917849320918322,1.0205854177474976,
39596,-0.004067707806825638,-0.010909727774560452,0.9874600768089294,
39606,-0.0033363213296979666,-0.006791506428271532,0.9932339787483215,
39616,0.0004254716623108834,0.004483593627810478,1.0037732124328613,
39626,-0.0022662959527224302,-0.009991385042667389,1.0018690824508667,
39636,-0.005563097074627876,0.013409720733761787,1.018728256225586,
39646,0.003076970111578703,0.014606376178562641,0.9973882436752319,
39656,-0.004309984389692545,-0.01731722615659237,1.002793550491333,
39666,0.010320987552404404,0.03282462805509567,0.9931780099868774,
39676,0.012574735097587109,0.00822705589234829,1.0032634735107422,
39686,0.043227069079875946,-0.010462709702551365,1.0287965536117554,
39696,0.009688827209174633,0.002082466846331954,0.9972984194755554,
39706,-0.029326559975743294,0.006063745357096195,0.9908891320228577,
39716,-0.004484259057790041,0.00848817452788353,0.9783520698547363,
39726,0.011377803981304169,-0.0039251865819096565,1.0072799921035767,
39736,-0.007791129872202873,0.011711843311786652,1.0107976198196411,
39746,0.004387421067804098,0.033171430230140686,1.0032330751419067,
39756,-0.02004709281027317,0.00013424486678559333,0.9978530406951904,
39766,0.02807992324233055,0.014043034985661507,1.016644835472107,
39776,-0.00017923173436429352,0.007584820967167616,1.009968876838684,
39786,-0.009174170903861523,0.00958558265119791,1.0046225786209106,
39796,-0.0038233997765928507,0.014584626071155071,0.991737425327301,
39806,-0.0016446311492472887,-0.01843012310564518,1.0288748741149902,
39816,-7.635829388163984e-05,-0.009528163820505142,1.0546499490737915,
39826,-0.008169651962816715,0.0004371781542431563,1.0169737339019775,
39836,-0.01463153213262558,0.024224193766713142,0.9894372224807739,
39846,0.016943367198109627,-0.00752269895747304,1.0083459615707397,
39856,-0.007920457050204277,-0.010137040168046951,1.0089519023895264,
39866,0.0024000273551791906,-0.004850124474614859,1.0125138759613037,
39876,-0.0015389277832582593,-0.0008108434267342091,1.0316507816314697,
39886,-0.003980759531259537,0.007395644206553698,0.9867014288902283,
39896,0.002858830150216818,-0.0112637709826231,1.0240892171859741,
39906,-0.01148231141269207,0.010507718659937382,1.0246284008026123,
39916,-0.011554939672350883,-0.008085986599326134,1.0127766132354736,
39926,-0.00973633024841547,-0.009029592387378216,1.0078415870666504,
39936,0.0007961321389302611,0.018254011869430542,0.9905524253845215,
39946,-0.011281262151896954,-0.001199474441818893,1.0417107343673706,
39956,-0.0036699166521430016,-6.560644578712527e-06,1.0111812353134155,
39966,-0.010981214232742786,0.010316465049982071,0.9741461277008057,
39976,-0.001557374489493668,0.024484574794769287,0.9923298954963684,
39986,0.010468277148902416,0.005016474053263664,0.9898695349693298,
39996,-0.01734471134841442,-0.010196936316788197,0.9717704057693481,
40006,0.0012472200905904174,0.016915420070290565,1.0049843788146973,
40016,-0.00011162154260091484,0.0027448320761322975,0.9866048097610474,
40026,-0.019787902012467384,0.008977173827588558,1.0288805961608887,
40036,-0.010272988118231297,-0.004281687084585428,1.0368797779083252,
40046,-0.005348198115825653,-0.021792249754071236,0.9665337204933167,
40056,-0.001301741343922913,0.03942325711250305,1.0029045343399048,
40066,0.0061877272091805935,0.08172351866960526,0.9399842619895935,
40076,0.030019601806998253,-0.031260546296834946,1.0064085721969604,
40086,0.009629014879465103,0.05371227115392685,1.0005950927734375,
40096,0.004642108455300331,0.04275989532470703,0.9681330323219299,
40106,-0.02080671116709709,-0.02373036928474903,1.0202759504318237,
40116,0.010609373450279236,-0.0016456486191600561,0.9925460815429688,
40126,-0.012839121744036674,0.0005914602661505342,1.008301019668579,
40136,0.004096819553524256,0.006403782870620489,1.0052016973495483,
40146,0.005489632952958345,0.01060489658266306,1.0164835453033447,
40156,-0.014270642772316933,-0.013195600360631943,1.0027790069580078,
40166,4.7739275032654405e-05,0.013355464674532413,1.0043714046478271,
40176,0.005209971684962511,0.009124714881181717,0.9997586607933044,
40186,0.00931603368371725,-0.014931938610970974,1.0011725425720215,
40196,0.006456307135522366,-0.007818511687219143,0.996557891368866,
40206,-0.003932880237698555,-0.009307947009801865,0.9980794787406921,
40216,-0.00679180771112442,0.020361918956041336,0.987038791179657,
40226,0.00379798817448318,-0.018329903483390808,1.0114539861679077,
40236,-0.011520047672092915,0.003604537108913064,1.0091264247894287,
40246,0.0009599214536137879,-0.0019061759812757373,0.9900324940681458,
40256,0.0007213943754322827,-0.003182037966325879,1.002158522605896,
40266,-0.00020411799778230488,0.000877171813044697,0.990998387336731,
40276,-0.0020929398015141487,-0.0017467611469328403,0.9796050190925598,
40286,-0.004791563376784325,0.0038505045231431723,1.0007117986679077,
40296,-0.009609474800527096,0.012791677378118038,0.9914207458496094,
40306,-0.0013298769481480122,0.011755650863051414,1.006686806678772,
40316,-0.0074774278327822685,0.01736818626523018,1.0100939273834229,
40326,-0.008021064102649689,-0.03429360315203667,1.0362496376037598,
40336,-0.0017867005662992597,-0.019406484439969063,1.0280874967575073,
40346,0.005320112686604261,0.07183841615915298,1.0094019174575806,
40356,0.0038994550704956055,0.027932418510317802,0.9691701531410217,
40366,0.010469012893736362,-0.008253563195466995,1.0215344429016113,
40376,0.013802195899188519,0.04326506331562996,1.0037161111831665,
40386,-0.0011663517216220498,0.003247778629884124,0.981271505355835,
40396,0.010087107308208942,0.017145995050668716,1.016878604888916,
40406,-0.004017393104732037,-0.012215017341077328,0.9990502595901489,
40416,-0.009597688913345337,-0.019297361373901367,0.9932765960693359,
40426,-0.003506388748064637,0.026287827640771866,0.9948898553848267,
40436,-0.006447670049965382,-0.00043510194518603384,1.0150091648101807,
40446,-0.006093657109886408,-0.011821889318525791,1.0196537971496582,
40456,-0.0003700029628816992,-0.008029588498175144,1.0075279474258423,
40466,-0.012392301112413406,0.030045492574572563,0.9759817123413086,
40476,0.006352677941322327,-0.00785005185753107,0.996359646320343,
40486,-0.00470353476703167,0.004531098995357752,0.9976195693016052,
40496,0.0007558361394330859,0.003791803028434515,0.9807119369506836,
40506,-0.00800437293946743,0.0024415282532572746,0.9845405220985413,
40516,-0.003134824801236391,0.006550084799528122,0.9980824589729309,
40526,-0.005263641010969877,-0.010196524672210217,0.9888428449630737,
40536,-0.008975195698440075,0.0007032931898720562,0.9932416081428528,
40546,0.0010008440585806966,0.002095548901706934,0.988366425037384,
40556,-0.01061817817389965,-0.0041460637003183365,1.0037251710891724,
40566,-0.002472261432558298,0.016067372635006905,1.0378185510635376,
40576,-0.004367279354482889,0.028574606403708458,0.9584181904792786,
40586,0.01159672811627388,-0.02352978102862835,0.9815703630447388,
40596,0.008709259331226349,0.034513019025325775,1.0103886127471924,
40606,0.0068181222304701805,0.045084260404109955,0.9961768984794617,
40616,-0.019641878083348274,-0.0029498920775949955,1.0174764394760132,
40626,0.019220227375626564,0.002148672239854932,1.0278822183609009,
40636,0.0068195415660738945,-0.006927391979843378,1.000143051147461,
40646,0.006253289058804512,0.020591214299201965,1.0074928998947144,
40656,0.0019732408691197634,0.012219306081533432,0.9831882119178772,
40666,-0.007961565628647804,0.0008988186600618064,0.9841808080673218,
40676,-0.0137801393866539,0.001086333766579628,1.0100737810134888,
40686,-0.013242125511169434,0.002794743049889803,1.0213136672973633,
40696,-0.023224880918860435,0.00952037051320076,1.0185555219650269,
40706,-0.0023007839918136597,-0.014673269353806973,1.0164622068405151,
40716,-5.2263669203966856e-05,-0.0018216600874438882,1.0255662202835083,
40726,0.00021745177218690515,-0.012108626775443554,1.016485571861267,
40736,-0.01909077912569046,0.007853230461478233,1.0049258470535278,
40746,-0.0043702078983187675,-0.00121468142606318,1.0035332441329956,
40756,2.9509599698940292e-05,-0.0006995116709731519,1.000280737876892,
40766,0.0005245375796221197,-0.012503260746598244,1.015020728111267,
40776,-0.003918482922017574,-0.002921135863289237,1.0273853540420532,
40786,-0.0038728320505470037,0.00975015014410019,1.017246127128601,
40796,-0.00972493551671505,0.0072090718895196915,1.00596022605896,
40806,-0.006651843897998333,0.026499828323721886,0.9689422845840454,
40816,0.0024224543012678623,-0.004294924903661013,0.9773357510566711,
