time,acc.x,acc.y,acc.z,
551289,0.009398465044796467,-0.007371822372078896,1.0437486171722412,
551299,-0.03203552961349487,0.001269346452318132,1.0393472909927368,
551309,-0.02111581526696682,0.02234526351094246,1.015522837638855,
551319,-0.00940228346735239,0.02296755090355873,1.0080161094665527,
551329,-0.0009762372355908155,0.008291919715702534,1.0199862718582153,
551339,-0.00721602700650692,0.011438501067459583,0.9690632820129395,
551349,0.0018667873227968812,0.035566821694374084,0.9784969091415405,
551359,-0.010628549382090569,-0.01815776899456978,0.9821305871009827,
551369,0.017227066680788994,0.05196189880371094,0.9448553323745728,
551379,0.021401872858405113,0.044431958347558975,1.0061044692993164,
551389,-0.008515803143382072,0.0309858787804842,1.0230681896209717,
551399,-0.010989192873239517,0.025014637038111687,0.9741718769073486,
551409,-0.0010847414378076792,0.04426732286810875,1.0066449642181396,
551419,-0.010359469801187515,0.02595384046435356,0.993809163570404,
551429,0.007948121055960655,0.04311925917863846,0.9542075991630554,
551439,-0.022930307313799858,0.0229982677847147,0.9707844853401184,
551449,-0.015356066636741161,0.05994535610079765,0.9873718023300171,
551459,-0.011344951577484608,0.03843802213668823,0.9802902340888977,
551469,0.009279826655983925,0.015064935199916363,0.9780789017677307,
551479,-0.004741411190479994,0.06499271839857101,1.0379250049591064,
551489,-0.006730892229825258,0.07284057140350342,0.9878441095352173,
551499,0.02269437164068222,-0.010344648733735085,0.9561964273452759,
551509,-0.009954811073839664,-0.004933108109980822,0.9785111546516418,
551519,-0.006167053245007992,0.035506874322891235,0.9626337289810181,
551529,0.008482958190143108,0.14296039938926697,1.0190784931182861,
551539,-0.012694813311100006,-0.017718514427542686,0.9833317399024963,
551549,-0.015233860351145267,0.025752147659659386,0.9396432638168335,
551559,-0.011766493320465088,-0.02798270434141159,0.9972541928291321,
551569,-0.03063131496310234,0.07542382925748825,0.9877114295959473,
551579,0.014697111211717129,0.06659593433141708,0.9739668369293213,
551589,-0.001622842624783516,0.02104991115629673,1.0243544578552246,
551599,-0.005089040379971266,-0.01689491979777813,1.0430787801742554,
551609,0.011969450861215591,-0.012540854513645172,0.9993588328361511,
551619,-0.022515233606100082,-0.0020641933660954237,1.035679578781128,
551630,-0.0065264953300356865,-0.0013921513454988599,1.0465167760849,
551639,0.008722880855202675,0.011365914717316628,1.0272414684295654,
551649,-0.0017298475140705705,0.011775047518312931,0.9996005892753601,
551659,-0.0224913302809,0.01457859855145216,1.0145949125289917,
551669,-0.005404109135270119,0.03502223640680313,0.9634239673614502,
551679,0.006738677155226469,0.023976607248187065,0.938889741897583,
551689,0.005300575401633978,-0.01643611118197441,1.0277584791183472,
551699,-0.0033204436767846346,0.004442139063030481,1.0012555122375488,
551709,-0.014229465276002884,0.04496098682284355,1.0148953199386597,
551719,-0.007861954160034657,0.03373238444328308,1.0231603384017944,
551729,-0.01570306532084942,0.05090758204460144,0.9735756516456604,
551739,-0.006012145429849625,0.001661205431446433,0.9870939254760742,
551749,-0.008767714723944664,-0.01830715872347355,0.9793792963027954,
551759,-0.025585029274225235,-0.023861635476350784,0.985106885433197,
551769,0.0007546083652414382,0.006189956795424223,1.0552030801773071,
551779,0.008177817799150944,-0.018878677859902382,0.985998272895813,
551789,0.012860691174864769,-0.019848383963108063,0.991364598274231,
551799,-0.018949737772345543,0.07016206532716751,0.991256058216095,
551809,-0.006100699305534363,0.06417377293109894,0.9367636442184448,
551819,-0.0014348771655932069,-0.00517895445227623,0.986054539680481,
551829,-0.04699889197945595,0.01616370677947998,0.9413542747497559,
551839,0.016419360414147377,0.008800538256764412,1.0201853513717651,
551849,-0.02532671019434929,0.06800160557031631,1.0037689208984375,
551859,0.010901241563260555,0.0533607192337513,0.9790055155754089,
551869,-0.009661607444286346,-0.015533339232206345,0.9919382333755493,
551879,-0.0029591512866318226,0.010465660132467747,0.9516319632530212,
551889,-0.01003876980394125,0.017147313803434372,0.9937557578086853,
551899,0.003434173995628953,0.006642571184784174,0.9958791732788086,
551909,0.020123498514294624,-0.029668334871530533,1.0444657802581787,
551919,-0.004514059983193874,-0.0322469063103199,0.9988645911216736,
551929,-0.00709577277302742,-0.003668628865852952,1.0060253143310547,
551939,0.002442393684759736,-0.011189156211912632,1.0217061042785645,
551949,-0.006105582695454359,0.0012213956797495484,1.0239804983139038,
551959,-0.0014111892087385058,0.00967040192335844,0.9771848320960999,
551969,-0.007555953226983547,0.0019219164969399571,0.9977986812591553,
551979,-0.0035286410711705685,0.04379713907837868,0.9593653082847595,
551989,-0.0007013394497334957,0.019942982122302055,0.9781046509742737,
551999,0.0029913983307778835,0.001194183831103146,0.9394413232803345,
552009,-0.04478183761239052,-0.0012125594075769186,1.0198910236358643,
552019,0.010555827990174294,-0.04557625204324722,1.0378141403198242,
552029,-0.01575184427201748,-0.017666852101683617,1.02152419090271,
552039,-0.008578999899327755,0.0505644790828228,1.0158056020736694,
552049,0.009044654667377472,0.02570217102766037,0.9980155229568481,
552059,0.010354903526604176,-0.007431329693645239,0.9797519445419312,
552069,-0.006470368709415197,-0.022900450974702835,0.9948543906211853,
552079,0.019118737429380417,0.04780299961566925,0.961911678314209,
552089,-0.01862630806863308,0.022136643528938293,1.037232756614685,
552099,0.00628052931278944,-0.021785950288176537,1.0112282037734985,
552109,-0.01257077232003212,0.014483494684100151,1.0456050634384155,
552119,-0.00024219385522883385,-0.012312090955674648,1.0103528499603271,
552129,-0.010165934450924397,-0.017656290903687477,1.0129979848861694,
552139,-0.00681498646736145,-0.014634388498961926,1.022188425064087,
552149,0.0026710419915616512,-0.01003233715891838,0.9953208565711975,
552159,-0.007225648500025272,0.003975848667323589,1.0026859045028687,
552169,-0.007372494786977768,-0.013354658149182796,1.038598656654358,
552179,0.029607776552438736,-0.012451819144189358,1.0042418241500854,
552189,-0.019037317484617233,0.004876343067735434,0.985879123210907,
552199,0.003573718247935176,-0.02041270211338997,0.9906001687049866,
552209,-0.01119623426347971,0.031341083347797394,0.9774196147918701,
552219,0.009033337235450745,0.011648301035165787,0.9864698648452759,
552229,-0.0008871271857060492,-0.0015890308422967792,0.9852871298789978,
552239,0.012250704690814018,0.02615427039563656,0.9635487198829651,
552249,0.008695961907505989,0.0644768550992012,0.9900140166282654,
552259,0.01411789283156395,0.09703212976455688,0.9824025630950928,
552269,0.041664574295282364,-0.04071296378970146,1.0667622089385986,
552279,-0.004741296172142029,0.010286928154528141,1.011817216873169,
552289,-0.015506213530898094,0.00048100727144628763,1.0156506299972534,
552299,0.004295310936868191,-0.0011451209429651499,1.014277696609497,
552309,-0.01698470674455166,-0.007145165931433439,0.9941564202308655,
552319,0.00787655171006918,0.011033488437533379,1.013553500175476,
552329,-0.0038784928619861603,0.009895906783640385,0.9951043128967285,
552339,-0.003937283996492624,0.045944273471832275,0.9470176100730896,
552349,0.023613454774022102,-0.008938643150031567,1.0343562364578247,
552359,0.009895623661577702,0.05946509167551994,1.0086241960525513,
552369,0.0033376405481249094,0.0033354524057358503,0.9973191022872925,
552379,0.003961227368563414,0.013154327869415283,1.006722331047058,
552389,-0.0010099845239892602,-0.003179560648277402,1.0035096406936646,
552399,-0.005415171384811401,0.006309784483164549,0.9609785676002502,
552409,-0.009308352135121822,-0.005447858944535255,0.9806970953941345,
552419,-0.004335911013185978,0.0022394568659365177,0.9701969623565674,
552429,0.013538011349737644,0.017349403351545334,0.9366637468338013,
552439,-0.01079598069190979,-0.006310317665338516,0.9672654867172241,
552449,0.007059954572468996,0.004464616067707539,0.9881715774536133,
552459,-0.00797433964908123,0.05167846754193306,0.9671887755393982,
552469,0.018642781302332878,-0.02831231616437435,1.0217807292938232,
552479,0.0028591726440936327,-0.0265349093824625,1.0296003818511963,
552489,0.014864959754049778,0.019762465730309486,1.016441822052002,
552499,0.003333647968247533,-0.003917471040040255,1.056726336479187,
552509,-0.01690865308046341,0.03705983981490135,1.076879858970642,
552519,-0.010338515974581242,-0.024162862449884415,1.0428297519683838,
552529,-0.001189757720567286,0.032695505768060684,0.997404932975769,
552539,-0.001729785231873393,0.010109685361385345,1.0552386045455933,
552549,-0.016339503228664398,0.017740119248628616,1.0160489082336426,
552559,-0.018050972372293472,0.015172978863120079,1.0309474468231201,
552569,-0.0036546613555401564,0.01729721762239933,1.0312018394470215,
552579,-0.023714836686849594,0.0030228793621063232,1.0414786338806152,
552589,-0.014331977814435959,0.0057379500940442085,0.9968013763427734,
552599,-0.015505949035286903,0.03785991296172142,0.9898486137390137,
552609,0.006329568102955818,0.02390730008482933,1.0255597829818726,
552619,0.008288220502436161,0.11574601382017136,0.9726839661598206,
552629,-0.012223441153764725,0.06510032713413239,1.051109790802002,
552639,-0.008681504987180233,-0.020252397283911705,1.0387786626815796,
552649,-0.016325267031788826,0.028390614315867424,1.0464448928833008,
552659,0.017718138173222542,-0.04246199503540993,1.0063279867172241,
552669,-0.01276416052132845,-0.0046181767247617245,1.0636560916900635,
552679,-0.007110272534191608,0.0036027042660862207,1.0087273120880127,
552689,-0.0033563068136572838,-0.015523472800850868,1.0502185821533203,
552699,-0.02585957758128643,0.00409129960462451,1.063700556755066,
552709,0.005040224175900221,-0.02945753000676632,1.0771281719207764,
552719,-0.016336603090167046,-0.0057650720700621605,1.100036382675171,
552729,-0.018964922055602074,0.0019697989337146282,1.0039218664169312,
552739,-0.01384261716157198,0.01390428002923727,1.058665156364441,
552749,-0.03131772205233574,0.02067621611058712,1.036773443222046,
552759,0.02936931699514389,0.015297734178602695,1.0528786182403564,
552769,-0.01970435492694378,0.014422770589590073,1.028778076171875,
552779,-0.01602083258330822,0.010727918706834316,1.0323100090026855,
552789,-0.009049871005117893,-0.005870408844202757,1.01132333278656,
552799,-0.009460999630391598,-0.002808935008943081,1.0305994749069214,
552809,-0.010459895245730877,-0.01644984818994999,0.9831177592277527,
552819,-0.025447968393564224,-0.004002660047262907,1.0051223039627075,
552829,-0.018474509939551353,0.04280385375022888,0.960481584072113,
552839,-0.01133127510547638,0.008159968070685863,0.9925640225410461,
552849,-0.028436316177248955,0.07756113260984421,0.9361615180969238,
552859,-0.012595833279192448,0.011286207474768162,0.9850910305976868,
552869,-0.023644065484404564,0.02537582814693451,0.9876576066017151,
552879,-0.03702009841799736,0.01841052994132042,0.9783211946487427,
552889,0.0005859316443093121,-0.026255805045366287,0.9776203632354736,
552899,-0.010333522222936153,-0.01670105941593647,0.98587566614151,
552909,0.010878623463213444,-0.009084051474928856,0.9783105850219727,
552919,0.0008637500577606261,-0.008184554986655712,0.9653492569923401,
552929,-0.0034080762416124344,0.00499660475179553,0.9811898469924927,
552939,-0.024547496810555458,0.0015358127420768142,0.981541633605957,
552949,-0.004944590851664543,-0.006646441295742989,0.9909874200820923,
552959,-0.018977006897330284,-0.0014471171889454126,1.0219048261642456,
552969,-0.01388743706047535,0.024039514362812042,0.9948109984397888,
552979,-0.021264834329485893,0.06487596035003662,0.978708028793335,
552989,-0.01105484738945961,0.06530748307704926,0.9604795575141907,
552999,-0.005481830332428217,-0.04702341556549072,0.9503883719444275,
553009,-0.003481466555967927,-0.02864505536854267,0.9836966395378113,
553019,0.011765711009502411,-0.03618188202381134,0.9841784238815308,
553029,-0.00038975008646957576,-0.023108378052711487,0.957839846611023,
553039,-0.01756821572780609,0.03270062804222107,0.8998755216598511,
553049,-0.012920776382088661,0.010949942283332348,0.9477633833885193,
553059,-0.01573082245886326,0.033576980233192444,0.959848940372467,
553069,-0.02795792557299137,0.016347594559192657,0.9561346173286438,
553079,-0.010751569643616676,0.006267789751291275,0.9624215960502625,
553089,0.006634303834289312,-0.01954273320734501,0.9677555561065674,
553099,-0.020541325211524963,0.04053811356425285,0.9882122874259949,
553109,0.02605718933045864,-0.03837620094418526,1.0285927057266235,
553119,0.0014232135144993663,-0.03142090141773224,1.0157285928726196,
553129,0.003249715780839324,-0.013125362806022167,1.0266765356063843,
553139,-0.0023955167271196842,-0.01547668781131506,0.9887811541557312,
553149,-0.01994170993566513,0.07818282395601273,1.0029643774032593,
553159,-0.016825368627905846,0.04002128168940544,0.9902567863464355,
553169,-0.015716811642050743,0.0018524597398936749,0.9900462031364441,
553179,-0.0017708613304421306,-0.0033868991304188967,0.9818323850631714,
553189,0.004630574025213718,0.0074685909785330296,0.9751912355422974,
553199,-0.014877975918352604,-0.00412089005112648,0.9734430313110352,
553209,-0.0014917069347575307,-0.006046070717275143,0.9706427454948425,
553219,-4.854946018895134e-05,0.005596925504505634,0.9711936116218567,
553229,-0.010358498431742191,0.0023985367733985186,0.9883756041526794,
553239,-0.0189558994024992,-0.008077433332800865,0.9594895243644714,
553249,-0.008751572109758854,0.010797103866934776,0.9892380237579346,
553259,0.01322163362056017,0.01303216814994812,0.9958983063697815,
553269,0.0008076858939602971,0.008346479386091232,0.9989399909973145,
553279,-0.017846234142780304,-0.018498918041586876,1.0507258176803589,
553289,0.004376510623842478,-0.03295128419995308,1.0070217847824097,
553299,-0.026118723675608635,0.02946847304701805,1.023705005645752,
553309,-0.02646905928850174,0.05983816459774971,1.0095402002334595,
553319,0.0009879515273496509,0.08996278047561646,0.9348047375679016,
553329,0.018409959971904755,0.015304777771234512,1.0204192399978638,
553339,-0.020518833771348,-0.010282394476234913,0.9791197776794434,
553349,0.0037104650400578976,-0.03547785431146622,0.9976428151130676,
553359,-0.013979853130877018,0.056835539638996124,0.9974913001060486,
553369,0.0037119414191693068,0.02812112681567669,0.9987449049949646,
553379,0.0023315642029047012,0.014216519892215729,1.0288408994674683,
553389,-0.0018666606629267335,0.0050436025485396385,1.0010324716567993,
553399,-0.01516739372164011,0.015584669075906277,1.012612223625183,
553409,-0.020597465336322784,0.009620684199035168,1.022774338722229,
553419,-0.0005995406536385417,0.0229400135576725,1.0479923486709595,
553429,-0.0034688774030655622,0.028932683169841766,1.0171701908111572,
553439,0.003677734639495611,0.004698599688708782,1.0343730449676514,
553449,-0.023220598697662354,-0.021892355754971504,1.0360562801361084,
553459,-0.006115542259067297,0.025500571355223656,1.0349527597427368,
553469,-0.016435232013463974,0.04414007440209389,1.0322325229644775,
553479,0.001753086457028985,-0.021231956779956818,1.0389798879623413,
553489,-0.028759317472577095,-0.03485969454050064,1.0154043436050415,
553499,-0.006298995576798916,0.04865582287311554,0.9852259755134583,
553509,0.0069299135357141495,0.021175727248191833,1.0647398233413696,
553519,-0.01909223571419716,0.0009921336313709617,1.0659300088882446,
553529,-0.043901897966861725,0.009581767953932285,1.0171661376953125,
553539,0.009850097820162773,-0.0012834008084610105,1.0409200191497803,
553549,-0.0218375101685524,0.0004514162428677082,1.0266526937484741,
553559,-0.0026637513656169176,0.006550993304699659,1.0274075269699097,
553569,-0.009718959219753742,-0.002755869412794709,1.0289853811264038,
553579,0.007410209625959396,-0.01390652172267437,1.0712319612503052,
553589,-0.025205016136169434,0.0003997850581072271,1.072304606437683,
553599,-0.013306912034749985,-0.018551457673311234,1.0367727279663086,
553609,-0.020283130928874016,0.02815483696758747,0.9585849046707153,
553619,0.026402711868286133,0.011578829027712345,1.0170530080795288,
553629,-0.011552328243851662,0.005863472353667021,1.1035184860229492,
553639,-0.01337997056543827,-0.02525954507291317,1.0745398998260498,
553649,-0.03471076115965843,0.05104059725999832,0.976103663444519,
553659,0.017305487766861916,0.07282394915819168,0.968644917011261,
553669,-0.00953399483114481,-0.008516214787960052,1.0208274126052856,
553679,0.009285029955208302,-0.02587272785604,1.0188595056533813,
553689,-0.02485947124660015,-0.009246088564395905,0.9532683491706848,
553699,-0.011575805023312569,-0.005284126382321119,0.9828681945800781,
553709,0.00972512923181057,0.05563691258430481,0.949047863483429,
553719,-0.01966180093586445,-0.009099053218960762,0.9570351243019104,
553729,0.008811242878437042,-0.002615400357171893,1.0240565538406372,
553739,-0.017597615718841553,0.07682904601097107,1.0258888006210327,
553749,0.008250444196164608,0.03660518303513527,1.0277190208435059,
553759,0.039837297052145004,-0.05767487734556198,1.0078181028366089,
553769,-0.007960482500493526,0.02990677021443844,1.0012708902359009,
553779,0.025490550324320793,0.09154657274484634,1.0155951976776123,
553789,-0.005852389149367809,0.0095465537160635,0.9404115080833435,
553799,-0.01692395657300949,0.01572546549141407,0.9727730751037598,
553809,-0.003857162781059742,0.051879946142435074,0.954508364200592,
553819,-0.014488806948065758,0.002511937404051423,0.9937673807144165,
553829,0.0029839558992534876,-0.006365297827869654,1.0214401483535767,
553839,0.0009034753893502057,-0.023398706689476967,0.9891342520713806,
553849,-0.018557772040367126,-0.01022131647914648,0.9742653369903564,
553859,-0.0026187142357230186,0.032074615359306335,0.9661369323730469,
553869,0.012108399532735348,0.015961799770593643,1.0073977708816528,
553879,-0.032836124300956726,0.13269487023353577,0.9725055694580078,
553889,0.021232200786471367,0.000966956780757755,0.9830637574195862,
553899,0.002670555841177702,-0.026094846427440643,1.0119670629501343,
553909,0.004996965639293194,-0.0022949553094804287,0.9713335037231445,
553919,-0.005638160277158022,-0.003596462309360504,1.020162582397461,
553929,-0.012235959991812706,0.007724096532911062,1.009663701057434,
553939,-0.02086164802312851,0.02145964652299881,0.9513315558433533,
553949,-0.01874973438680172,0.030860241502523422,0.9370824098587036,
553959,0.027514196932315826,0.04885047301650047,0.9443332552909851,
553969,0.010532847605645657,0.02499154955148697,1.0606000423431396,
553979,0.014622734859585762,-0.018890662118792534,1.0095752477645874,
553989,-0.014954520389437675,-0.0030893213115632534,1.0038493871688843,
553999,-0.006344834342598915,0.035887327045202255,1.0036354064941406,
554009,-0.009614568203687668,0.01152846124023199,1.0009779930114746,
554019,-0.018105853348970413,-0.03902870789170265,1.018767237663269,
554029,-0.012426475062966347,0.024702388793230057,1.0033940076828003,
554039,-0.028318163007497787,0.05329414829611778,0.996297299861908,
554049,-0.029965056106448174,0.008908393792808056,0.9113982319831848,
554059,-0.003003506688401103,0.06627584993839264,0.9621437191963196,
554069,0.0069237337447702885,0.1424492597579956,0.9988367557525635,
554079,0.022341787815093994,-0.005774879828095436,1.0119576454162598,
554089,-0.015850374475121498,-0.013950132764875889,0.999701738357544,
554099,-0.007668612990528345,0.0401485450565815,1.0138952732086182,
554109,0.007834941148757935,0.016660595312714577,0.9916136264801025,
554119,0.017835579812526703,-0.002572606084868312,1.0569604635238647,
554129,-0.026724405586719513,-0.0013430342078208923,1.0277678966522217,
554139,0.017758185043931007,0.04340334236621857,0.9991674423217773,
554149,0.026988038793206215,-0.022013163194060326,1.1016992330551147,
554159,-1.2342120498942677e-05,0.01765153929591179,1.0842918157577515,
554169,0.011943579651415348,0.029537422582507133,1.059815764427185,
554179,-0.010084990411996841,0.0017162731382995844,1.073678970336914,
554189,-0.013157324865460396,-0.029491031542420387,1.0281962156295776,
554199,-0.015254608355462551,-0.004581027198582888,1.0320953130722046,
554209,-0.013017199002206326,0.004864888731390238,1.03896963596344,
554219,-0.023848336189985275,-0.0036805393174290657,1.0212194919586182,
554229,-0.00860201008617878,0.005084073171019554,1.0190843343734741,
554239,-0.011300050653517246,-0.004624325782060623,1.0180240869522095,
554249,-0.009990314953029156,0.011061455123126507,1.0054577589035034,
554259,0.008605370298027992,0.07204776257276535,0.9123121500015259,
554269,0.036254290491342545,0.0014547908212989569,1.0090595483779907,
554279,-0.00618096673861146,0.050837192684412,1.0530601739883423,
554289,-0.002158710965886712,0.007640359457582235,1.0364534854888916,
554299,-0.02095757983624935,0.012339095585048199,0.9630995392799377,
554309,-0.008424795232713223,0.0024204200599342585,0.9746461510658264,
554319,-0.009755626320838928,0.06847717612981796,0.9996681809425354,
554329,-0.005117762368172407,7.774680852890015e-05,0.9809989333152771,
554339,-0.022920876741409302,-0.029280705377459526,1.0104362964630127,
554349,-0.013187344186007977,0.003721036948263645,1.0386302471160889,
554359,-0.012282969430088997,0.04039816930890083,0.9665554165840149,
554369,-0.010698978789150715,-0.005034519825130701,0.9578806161880493,
554379,0.004754176829010248,0.05547358840703964,0.9330645799636841,
554389,0.023190248757600784,0.056832436472177505,0.9930750131607056,
554399,-0.01828324981033802,-0.02235107123851776,1.0429315567016602,
554409,-0.0419003963470459,0.03434903547167778,0.985459566116333,
554419,-0.01289528701454401,0.08249244093894958,0.9361229538917542,
554429,0.04178295657038689,-0.045997124165296555,0.9865643978118896,
554439,-0.020067138597369194,0.10148115456104279,0.9680452346801758,
554449,0.002646630397066474,0.04798556864261627,0.9947729110717773,
554459,-0.014504204504191875,0.01145109161734581,0.9945405125617981,
554469,-0.017287403345108032,0.007902149111032486,0.9983956813812256,
554479,-0.003741089953109622,0.034952737390995026,0.9808770418167114,
554489,0.020022545009851456,-0.00711986655369401,0.9835326075553894,
554499,0.00866762362420559,-0.04615750536322594,1.0083786249160767,
554509,0.023508155718445778,0.04475511610507965,1.0221391916275024,
554519,-0.014788966625928879,0.03903903812170029,1.0134793519973755,
554529,-0.008697310462594032,-0.03759567812085152,1.0301896333694458,
554539,0.007274854928255081,0.09885463118553162,0.9910450577735901,
554549,0.021427003666758537,-0.014492252841591835,0.9956271648406982,
554559,0.010552157647907734,0.06434463709592819,0.9546986818313599,
554569,0.034635331481695175,0.0192610751837492,1.0399713516235352,
554579,0.00010548283171374351,-0.019504748284816742,1.0645548105239868,
554589,0.0006644924287684262,0.06417106837034225,1.021593451499939,
554599,-0.00041258198325522244,0.005261754617094994,1.0825477838516235,
554609,0.0017403484089300036,-0.008427971042692661,1.0769433975219727,
554619,-0.019201653078198433,0.03500611335039139,1.0315594673156738,
554629,-0.002549257595092058,0.03423945605754852,0.9921512603759766,
554639,0.003679503919556737,-0.016418544575572014,1.010688066482544,
554649,-0.01826765388250351,0.014893684536218643,1.0323617458343506,
554659,-0.012924542650580406,0.0314304493367672,0.9904232621192932,
554669,-0.013729478232562542,0.003938085399568081,0.9686437845230103,
554679,0.00877286121249199,-0.016016649082303047,0.9987107515335083,
554689,-0.001990478252992034,0.019373709335923195,0.9700706005096436,
554699,0.008056199178099632,0.019163813441991806,1.013236165046692,
554709,-0.004210272338241339,0.015541786327958107,0.9724264740943909,
554719,-0.0028688046149909496,0.01069662719964981,1.061849594116211,
554729,0.006426251493394375,0.006375434808433056,1.0464870929718018,
554739,-0.024716468527913094,0.018410732969641685,0.9984524846076965,
554749,-0.0005719242617487907,0.02263297699391842,1.0365451574325562,
554759,-0.012135159224271774,0.014355553314089775,1.0018473863601685,
554769,-0.000605932844337076,0.012902118265628815,1.0474567413330078,
554779,0.002089759334921837,0.01655459776520729,1.0315043926239014,
554789,0.006450040265917778,-0.0022324100136756897,1.0058280229568481,
554799,0.008245805278420448,0.01574471779167652,0.9864891171455383,
554809,0.0024671179708093405,0.017359592020511627,0.9764660596847534,
554819,0.014144446700811386,-0.0074340892024338245,1.0263671875,
554829,0.006803630851209164,0.02604837715625763,1.0174007415771484,
554839,-0.0020751021802425385,0.0030392527114599943,1.0581344366073608,
554849,-0.004596016835421324,0.002314393175765872,1.032984733581543,
554859,-0.011981461197137833,-0.018831079825758934,1.039474368095398,
554869,0.010994232259690762,0.017530187964439392,1.0028164386749268,
554879,-0.005456145852804184,-0.008686190471053123,0.9690917730331421,
554889,0.006602868437767029,-0.01614295318722725,0.975745677947998,
554899,0.012093957513570786,0.0043754298239946365,0.9595458507537842,
554909,0.0017924614949151874,-0.020495228469371796,0.9807844758033752,
554919,0.005607214756309986,0.02983526512980461,1.006395697593689,
554929,0.013600545935332775,-0.0030060538556426764,1.0416845083236694,
554939,-0.03538433089852333,-0.016327323392033577,1.028287410736084,
554949,-0.0008507948368787766,0.024601314216852188,0.9933940768241882,
554959,-0.011818953789770603,-0.0008502575801685452,0.9782872200012207,
554969,-0.006561149377375841,-0.020665550604462624,1.0089017152786255,
554979,0.005570464767515659,0.07803507894277573,0.9665634632110596,
554989,-0.009032702073454857,-0.0005596835981123149,0.9948226809501648,
554999,0.0024059810675680637,-0.019686197862029076,1.0415173768997192,
555009,-0.01708965189754963,0.048253726214170456,0.9969796538352966,
555019,-0.009082220494747162,-0.04137527942657471,1.0179190635681152,
555029,-0.012445543892681599,0.03729332983493805,0.9851669073104858,
555039,-0.005110612139105797,0.008581302128732204,0.9765267968177795,
555049,-0.002881909953430295,-6.125630170572549e-05,0.9685532450675964,
555059,0.018480850383639336,0.07102057337760925,0.977258563041687,
555069,0.0019063303479924798,0.016210073605179787,1.0633187294006348,
555079,0.01752149872481823,-0.01323776226490736,1.0669187307357788,
555089,-0.012136389501392841,0.0982820987701416,1.0498944520950317,
555099,-0.00889983493834734,0.0066709076054394245,1.069048523902893,
555109,-0.03495815396308899,-0.06447339802980423,1.0118416547775269,
555119,-0.02406807616353035,0.12081152200698853,1.0011574029922485,
555129,0.041039787232875824,-0.021455753594636917,1.017263412475586,
555139,-0.012338652275502682,-0.014417877420783043,1.0215768814086914,
555149,0.011257930658757687,0.1059509664773941,0.9985468983650208,
555159,0.011138694360852242,-0.02379673160612583,1.0208938121795654,
555169,0.001330495229922235,0.000282949156826362,1.0305625200271606,
555179,0.02111944742500782,0.037249624729156494,1.0106868743896484,
555189,-0.012497707270085812,-0.015023414976894855,1.0309808254241943,
555199,-0.002871848875656724,0.004335504025220871,1.0062592029571533,
555209,-0.005205690860748291,0.03131558373570442,0.9961076378822327,
555219,0.004448194056749344,-0.009339869022369385,0.9955382943153381,
555229,-0.004602758679538965,0.04195670038461685,0.9788492321968079,
555239,0.0014547033933922648,0.025305258110165596,0.9860950112342834,
555249,0.0071547687985002995,-0.00830037146806717,1.0103169679641724,
555259,0.004652478266507387,0.020559601485729218,1.0149357318878174,
555269,0.006487573962658644,0.0044509307481348515,1.0034868717193604,
555279,-0.016754955053329468,0.01172649022191763,0.989142119884491,
555289,0.005026374012231827,-0.00453694025054574,0.9925171732902527,
555299,-0.004150998312979937,0.019197853282094002,0.9882750511169434,
555309,-0.0008209753432311118,2.8359994757920504e-05,1.017835021018982,
555319,-0.006889282260090113,0.015846623107790947,1.0159034729003906,
555329,0.012331882491707802,-0.0011560829589143395,0.9997893571853638,
555339,-0.023507913574576378,-0.0036864171270281076,0.9927254319190979,
555349,-0.0017356486059725285,-0.017606841400265694,0.9894877672195435,
555359,0.0036281703505665064,-0.012638184241950512,1.0096491575241089,
555369,-0.0010313467355445027,0.014274329878389835,1.0330170392990112,
555379,-0.005001628305763006,-0.009148042649030685,1.018163800239563,
555389,-0.0009597193566150963,0.0005018546944484115,0.9976354241371155,
555399,0.004942526575177908,-0.010835249908268452,0.9836615920066833,
555409,-0.0034657625947147608,0.008512497879564762,0.9912983179092407,
555419,0.015921637415885925,0.026061486452817917,1.0061053037643433,
555429,-0.008067848160862923,-0.012782599776983261,1.0431183576583862,
555439,-0.005009083077311516,-0.002145038917660713,1.0551483631134033,
555449,0.0029568250756710768,0.017527993768453598,0.9829362630844116,
555459,0.014831465668976307,-0.010648733004927635,1.0184680223464966,
555469,0.002594600897282362,0.02487858012318611,0.9976398348808289,
555479,0.0031136663164943457,0.006741706747561693,1.0153400897979736,
555489,0.01950857602059841,0.0015775251667946577,1.0724356174468994,
555499,-0.0014499030075967312,-0.010383754968643188,1.0502039194107056,
555509,0.0013540725922212005,-0.0017814630409702659,1.0410150289535522,
555519,-0.0070137763395905495,0.016349226236343384,0.9596449136734009,
555529,-0.0035880375653505325,-0.018809042870998383,0.995231568813324,
555539,0.010739940218627453,0.04610248655080795,0.9714577198028564,
555549,-0.0026916894130408764,0.00817827321588993,0.9906004071235657,
555559,0.0020702958572655916,0.022716015577316284,0.9972407817840576,
555569,0.0008473996422253549,0.048397988080978394,0.9859569668769836,
555579,0.0028186982963234186,0.03626493737101555,1.017959475517273,
555589,-0.007653488777577877,0.007811729796230793,1.0215328931808472,
555599,-0.002954545896500349,0.034410566091537476,1.0897305011749268,
555609,-0.035482555627822876,-0.0014746221713721752,1.1395318508148193,
555619,0.0010217376984655857,0.023000899702310562,1.0980141162872314,
555629,0.01944994553923607,0.057820968329906464,1.0785939693450928,
555639,-0.013641845434904099,-0.0084684481844306,1.0367741584777832,
555649,-0.03762686625123024,0.026035746559500694,1.0824754238128662,
555659,0.03558582812547684,0.06107122078537941,1.1388765573501587,
555669,-0.0054173762910068035,-0.041571419686079025,1.1060580015182495,
555679,-0.026470264419913292,0.06717649847269058,1.0766550302505493,
555689,0.02449803240597248,0.13287532329559326,1.1100116968154907,
555699,-0.002835954539477825,-0.051839109510183334,1.1193666458129883,
555709,-0.0339067243039608,0.01691468618810177,1.0969974994659424,
555719,-0.011555958539247513,0.12488554418087006,1.096421718597412,
555729,0.004193488042801619,-0.03256240487098694,1.1867341995239258,
555739,0.006197813898324966,-0.06937365978956223,1.1909857988357544,
555749,0.007752161473035812,0.04033881425857544,1.1670373678207397,
555759,-0.0015322889667004347,0.041865307837724686,1.1210912466049194,
555769,-0.00676628528162837,-0.0032037743367254734,1.1375551223754883,
555779,-0.022229090332984924,0.003488794667646289,1.2024434804916382,
555789,-0.0011529254261404276,-0.043442755937576294,1.1780949831008911,
555799,0.02061733417212963,-0.01712130568921566,1.0917309522628784,
555809,0.02252843603491783,0.05107831582427025,1.0964866876602173,
555819,-0.04538276419043541,0.01843411847949028,1.0668718814849854,
555829,-0.024137884378433228,-0.020271139219403267,1.1504273414611816,
555839,0.004892323166131973,-0.023895535618066788,1.2176624536514282,
555849,0.013359786942601204,0.007457001134753227,1.1878613233566284,
555859,-0.0013167291181162,0.04822717607021332,1.0874642133712769,
555869,-0.018658777698874474,0.03298013657331467,1.0944960117340088,
555879,0.006032266188412905,-0.006092100869864225,1.1429892778396606,
555889,0.02465278096497059,-0.01182265393435955,1.158509373664856,
555899,-0.009170787408947945,0.03434344753623009,1.0888155698776245,
555909,-0.010651909746229649,0.047920193523168564,1.0709878206253052,
555919,0.03738541528582573,0.02894343063235283,1.121196985244751,
555929,-0.022972891107201576,0.004121570382267237,1.0767204761505127,
555939,-0.02566942758858204,0.014793206006288528,1.0575240850448608,
555949,0.017180129885673523,0.020424284040927887,1.0385586023330688,
555959,-0.018465681001544,0.010470573790371418,1.0527435541152954,
555969,0.011160782538354397,-0.006929692812263966,1.1019622087478638,
555979,-0.0016905541997402906,-0.010147140361368656,1.092384934425354,
555989,0.008605522103607655,0.026668837293982506,1.0350052118301392,
555999,0.009117534384131432,0.020592181012034416,1.0218210220336914,
556009,0.0030250928830355406,0.022696616128087044,0.9619562029838562,
556019,0.017017116770148277,0.03746946528553963,0.9543084502220154,
556029,0.011497089639306068,0.060248397290706635,0.9514526724815369,
556039,-0.0017451546154916286,0.010930121876299381,0.9158569574356079,
556049,0.012800091877579689,0.0179904792457819,0.9964723587036133,
556059,-0.0003164215013384819,0.09014396369457245,0.9636383056640625,
556069,0.0016831501852720976,-0.04462383687496185,1.0028475522994995,
556079,-0.029148859903216362,0.0411657840013504,0.9447427988052368,
556089,-0.010303969494998455,0.056984491646289825,0.9276508092880249,
556099,6.257738277781755e-06,-0.0025248690508306026,0.9479501843452454,
556109,0.014894755557179451,-0.02964594028890133,0.9838892817497253,
556119,-0.00792236439883709,0.025242481380701065,0.971147894859314,
556129,0.0014717847807332873,0.03954900801181793,0.9293615818023682,
556139,0.013971643522381783,0.0023686953354626894,0.9353906512260437,
556149,-0.01851186528801918,0.016365161165595055,0.9005191922187805,
556159,-0.013085085898637772,0.0016233614878728986,0.8799884915351868,
556169,-0.006138732191175222,0.001092584920115769,0.9278873801231384,
556179,0.02021763287484646,0.00953856110572815,0.9095408320426941,
556189,-0.005274876020848751,-0.01626376435160637,0.9306696653366089,
556199,0.012217508628964424,-0.02907649055123329,0.9221245646476746,
556209,0.003949729725718498,-0.008952263742685318,0.928095281124115,
556219,0.0029393178410828114,0.014634066261351109,0.9459465742111206,
556229,0.014492425136268139,0.007666181772947311,0.9433330297470093,
556239,-0.002488735131919384,0.0024397268425673246,0.8856083750724792,
556249,-0.0055963145568966866,0.008999085053801537,0.9027401208877563,
556259,0.005454330705106258,0.020889200270175934,0.8838387131690979,
556269,0.00916306022554636,0.047700218856334686,0.8620179891586304,
556279,0.00997746828943491,0.04838651046156883,0.8998406529426575,
556289,0.008462741039693356,0.025869615375995636,0.8645592331886292,
556299,-0.02169954590499401,0.028090640902519226,0.8789811730384827,
556309,-0.021562514826655388,0.05627826228737831,0.8928649425506592,
556319,-0.014835349284112453,0.10355284810066223,0.8807122707366943,
556329,-0.021893266588449478,-0.0005266490043140948,0.9111722707748413,
556339,0.027028381824493408,-0.021596696227788925,0.9316491484642029,
556349,-0.026149634271860123,-0.015407123602926731,0.8855124711990356,
556359,0.020344123244285583,0.09151311218738556,0.9122709035873413,
556369,0.030712436884641647,0.042952582240104675,0.9072276949882507,
556379,-0.021146656945347786,-0.047524161636829376,0.9140398502349854,
556389,0.0373048260807991,-0.06177899241447449,0.9420276880264282,
556399,-0.006489712744951248,0.0825362280011177,0.9117768406867981,
556409,0.0014387244591489434,0.053312696516513824,0.9226571321487427,
556419,0.016178054735064507,0.011750814504921436,0.9294014573097229,
556429,0.0034823184832930565,0.012648653239011765,0.8963976502418518,
556439,-0.01610916294157505,0.011217830702662468,0.9135922789573669,
556449,-0.006684504449367523,0.047052811831235886,0.9361774325370789,
556459,0.0016372122336179018,0.009640606120228767,0.9377079010009766,
556469,-0.0016371284145861864,-0.003496613586321473,0.9300081729888916,
556479,-0.000617228215560317,0.009858587756752968,0.9090759754180908,
556489,-0.019035551697015762,0.005524442996829748,0.9251580238342285,
556499,-0.015807388350367546,0.008288145996630192,0.9314478635787964,
556509,-0.009122191928327084,-0.004045916721224785,0.9281331896781921,
556519,-0.00013211186160333455,0.016102725639939308,0.9308199286460876,
556529,0.003792771603912115,0.017999716103076935,0.9117136001586914,
556539,-0.014196512289345264,0.0034986648242920637,0.9460406303405762,
556549,-0.002737385220825672,-0.0077351112850010395,0.9406018853187561,
556559,-0.008719592355191708,-0.0048973942175507545,0.9472765326499939,
556569,-0.006504069082438946,0.05722047761082649,0.948969841003418,
556579,-0.017701465636491776,0.05870933085680008,0.9507693648338318,
556589,-0.021672498434782028,0.005432005971670151,0.9282826781272888,
556599,-0.004000301938503981,0.004964378662407398,0.9790094494819641,
556609,-0.01917664147913456,0.09463919699192047,0.9168049693107605,
556619,0.02009441703557968,0.05667436867952347,0.9608088731765747,
556629,0.0007493653101846576,0.03820875659584999,0.9026811122894287,
556639,-0.0056182341650128365,-0.04400297999382019,0.9521042108535767,
556649,-0.03829442337155342,0.2121867537498474,0.9233765006065369,
556659,0.014092432335019112,0.11944767832756042,0.9745872020721436,
556669,0.0051090894266963005,-0.03729735687375069,1.0146815776824951,
556679,0.004347857087850571,-0.04950474575161934,0.9928417205810547,
556689,0.014126445166766644,-0.012898174114525318,1.00912606716156,
556699,0.003324818564578891,0.051485490053892136,0.9825881719589233,
556709,0.0015478743007406592,0.006800442468374968,0.9562469720840454,
556719,-0.007862169295549393,0.0057666185311973095,0.9334973096847534,
556729,-0.0029525503050535917,0.043681781738996506,0.9636732935905457,
556739,0.003405878087505698,0.033532366156578064,0.9860929846763611,
556749,0.013623455539345741,-0.022059163078665733,1.0049837827682495,
556759,0.007655241061002016,0.004024561494588852,1.0141865015029907,
556769,0.016972187906503677,-0.0016459242906421423,0.9868466258049011,
556779,-0.002161589218303561,0.00730481231585145,0.9816650748252869,
556789,0.007640424184501171,0.0019195693312212825,0.9953650236129761,
556799,-0.010249903425574303,-0.010796464048326015,0.9966350793838501,
556809,0.006120374891906977,-0.0059661781415343285,0.9910212159156799,
556819,-0.0036359746009111404,-0.008023264817893505,1.0319397449493408,
556829,-0.0042229630053043365,0.00017326304805465043,0.9891746640205383,
556839,0.012325291521847248,0.004064747132360935,0.968280017375946,
556849,0.022132959216833115,0.010010359808802605,1.0063914060592651,
556859,-0.003537806449458003,-0.0024224233347922564,0.9768348932266235,
556869,0.0016365662449970841,0.011751622892916203,0.9738828539848328,
556879,0.02463281899690628,0.05423378571867943,0.9302835464477539,
556889,0.0026512648910284042,0.013677735812962055,1.0160361528396606,
556899,-0.008223218843340874,-0.003490497823804617,0.9890639781951904,
556909,0.0021534906700253487,0.03479268029332161,0.949832558631897,
556919,0.0270477756857872,0.06569134443998337,0.9998704195022583,
556929,-0.020900342613458633,-0.0065873353742063046,1.0304299592971802,
556939,0.014065268449485302,-0.030043551698327065,1.0026150941848755,
556949,0.0030412133783102036,0.0781526118516922,0.9621302485466003,
556959,-0.005524892359972,0.056582823395729065,0.9934800267219543,
556969,-0.002637795638293028,0.0037660941015928984,0.9573988914489746,
556979,0.025307072326540947,-0.045467931777238846,0.9869356155395508,
556989,-0.011468233540654182,0.1329745054244995,1.0098587274551392,
556999,-0.022238826379179955,0.022011173889040947,0.9788041114807129,
557009,-0.015205388888716698,0.04013241082429886,0.9002336263656616,
557019,0.005129056982696056,0.03760606423020363,0.9665725827217102,
557029,-0.01663602888584137,0.07026094198226929,0.9793646335601807,
557039,0.02118491753935814,0.009862185455858707,0.9799865484237671,
557049,0.005643289070576429,0.023168396204710007,1.0203522443771362,
557059,-0.00034728951868601143,-0.02849969081580639,1.0092272758483887,
557069,-0.019378531724214554,0.0008518495596945286,1.023913860321045,
557079,-0.008783303201198578,-0.0016456134617328644,0.9993733763694763,
557089,-0.0030791605822741985,0.014828472398221493,1.0012332201004028,
557099,0.022408876568078995,0.00487534562125802,0.9858245253562927,
557109,-0.007907729595899582,-0.011625058017671108,1.033621072769165,
557119,-0.005976752378046513,0.01101150456815958,1.0014033317565918,
557129,0.004662614315748215,0.007434729486703873,0.9789109230041504,
557139,0.03680500015616417,0.004632262513041496,1.0405175685882568,
557149,0.010541938245296478,-0.005513123236596584,1.0197566747665405,
557159,0.011227983050048351,0.020443277433514595,1.0051246881484985,
557169,0.022744296118617058,0.032042909413576126,0.924726128578186,
557179,0.014062956906855106,-0.007867217995226383,0.9654944539070129,
557189,0.008334233425557613,0.028250452131032944,0.9743161797523499,
557199,0.0019705179147422314,-0.008149974048137665,0.9967309236526489,
557209,0.014533773995935917,0.024918172508478165,0.9700956344604492,
557219,-0.0013686701422557235,0.004423188976943493,1.0066380500793457,
557229,0.003606307553127408,0.027532154694199562,1.0146161317825317,
557239,-0.0013655144721269608,0.002964630024507642,1.0411771535873413,
557249,-0.001165539724752307,0.03137018159031868,1.011235237121582,
557259,0.024700935930013657,-0.011414676904678345,1.0368067026138306,
557269,0.006104046478867531,0.02371523529291153,1.0052099227905273,
557279,0.009372847154736519,0.0008850015001371503,1.0169562101364136,
557289,-0.015346227213740349,-3.5175926313968375e-05,0.9870722889900208,
557299,-0.0015343019040301442,-0.007590817287564278,0.996900200843811,
557309,-0.00973424594849348,0.011528038419783115,1.028184175491333,
557319,0.008389615453779697,0.014189486391842365,1.0038613080978394,
557329,0.010400564409792423,0.014455577358603477,0.9602866768836975,
557339,0.02328476496040821,-0.019503680989146233,0.989677906036377,
557349,-0.01322165410965681,0.01826586201786995,1.0265692472457886,
557359,-0.016326123848557472,0.03425746038556099,1.0009793043136597,
557369,-0.010771644301712513,0.07410407811403275,0.9165351390838623,
557379,0.04289489611983299,-0.01617417111992836,0.9989703297615051,
557389,-0.012223013676702976,0.0402163527905941,1.0169178247451782,
557399,-0.00234650494530797,0.07651755958795547,0.9994550943374634,
557409,-0.021826909855008125,0.05071258172392845,0.9873031973838806,
557419,0.002559541491791606,-0.016481036320328712,1.0036725997924805,
557429,-0.021127598360180855,0.08295931667089462,0.998236894607544,
557439,0.025926882401108742,0.025527041405439377,0.9910880327224731,
557449,-0.005314865615218878,-0.014716899022459984,1.040727138519287,
557459,-0.0011354024754837155,-0.0015101796016097069,1.0379247665405273,
557469,-0.009722796268761158,0.059902239590883255,1.0067427158355713,
557479,0.03872894123196602,0.016302697360515594,1.030855417251587,
557489,0.009766334667801857,-0.0411536879837513,1.0361217260360718,
557499,0.0018331145402044058,0.025983985513448715,1.0175657272338867,
557509,0.007437612861394882,0.0378209687769413,1.0032627582550049,
557519,-0.008417408913373947,-0.0025387334171682596,1.0038975477218628,
557529,0.005299002397805452,-0.02597091533243656,1.0190294981002808,
557539,0.0070366947911679745,-0.006432665046304464,1.0099972486495972,
557549,0.017833847552537918,0.031981706619262695,0.9766893982887268,
557559,0.005046656355261803,0.0009358139359392226,1.005517601966858,
557569,0.00038389500696212053,0.0036863686982542276,0.978359043598175,
557579,0.0037338845431804657,-0.003956553526222706,0.9856755137443542,
557589,0.005479753948748112,0.013939871452748775,0.9570255875587463,
557599,-0.0004261464055161923,0.005109100136905909,0.9956209063529968,
557609,0.0024716095067560673,0.010066615417599678,0.9924263954162598,
557619,0.009825238026678562,0.016083816066384315,0.9888510704040527,
557629,2.9490678571164608e-05,0.009213615208864212,0.9534885883331299,
557639,-0.009427713230252266,0.012378916144371033,0.9710772037506104,
557649,0.006796649191528559,-0.0040546623058617115,1.0261999368667603,
557659,0.0019684447906911373,0.020643193274736404,1.0413053035736084,
557669,0.006735105067491531,0.013525668531656265,0.9686427712440491,
557679,0.008048348128795624,0.017822716385126114,0.9796932339668274,
557689,0.007588633801788092,-0.00459290063008666,1.026673674583435,
557699,-0.0032123797573149204,-0.005676203407347202,1.041021466255188,
557709,0.0020931174512952566,-0.007391680963337421,1.0310560464859009,
557719,0.004452496767044067,0.019705187529325485,1.0016114711761475,
557729,0.016980603337287903,0.045080527663230896,1.011942982673645,
557739,0.0006932702963240445,0.009440288878977299,1.0104646682739258,
557749,-0.0023948359303176403,-0.017991170287132263,1.0614264011383057,
557759,-0.01248544454574585,0.02980083040893078,1.016605257987976,
557769,0.01789182238280773,0.0368204191327095,0.9915436506271362,
557779,-0.004568225238472223,0.007918630726635456,1.0361655950546265,
557789,0.0009524120832793415,0.0363573357462883,1.0366556644439697,
557799,0.004412508569657803,0.005335638299584389,1.0320883989334106,
557809,-0.006932829972356558,-0.0005143911112099886,1.043418049812317,
557819,-0.0018135716672986746,0.005035837646573782,1.035509705543518,
557829,-0.011922494508326054,0.033979382365942,1.0160512924194336,
557839,0.014026648364961147,0.015218952670693398,1.017255187034607,
557849,0.005191901233047247,-0.0028693575877696276,1.0252444744110107,
557859,0.00400884635746479,-0.0007290245266631246,0.9912161231040955,
557869,-0.019934413954615593,0.034779153764247894,0.9966905117034912,
557879,0.018244579434394836,0.011436876840889454,1.0215967893600464,
557889,-0.0007034984300844371,0.013720618560910225,1.0379718542099,
557899,-0.00421149330213666,-0.004135701805353165,1.0019389390945435,
557909,-0.021800940856337547,0.020184693858027458,1.0114994049072266,
557919,0.015558925457298756,0.04169687628746033,0.9965620040893555,
557929,-0.016668185591697693,0.035263385623693466,1.0674339532852173,
557939,-0.01089182123541832,-0.012841340154409409,1.0354938507080078,
557949,-0.00988773349672556,0.05245675519108772,0.9956833124160767,
557959,0.026204265654087067,0.05653907358646393,1.0113657712936401,
557969,0.007214765530079603,0.032099805772304535,0.9970842003822327,
557979,0.01760396547615528,-0.0005624957848340273,1.0088224411010742,
557989,-0.01390404999256134,0.05917854979634285,1.0318217277526855,
557999,-0.012604237534105778,0.025037268176674843,1.0043833255767822,
558009,-0.017357101663947105,0.08581610023975372,0.9259772300720215,
558019,-0.015396874397993088,0.024076122790575027,0.9872007369995117,
558029,0.002343545202165842,0.10181424766778946,0.9161230325698853,
558039,0.015428561717271805,0.05967411771416664,0.974795937538147,
558049,-0.012247210368514061,0.07551814615726471,0.9997716546058655,
558059,0.014863847754895687,0.01669483073055744,1.0070425271987915,
558069,0.006145770195871592,-0.008475854992866516,1.052169680595398,
558079,-0.02418457716703415,0.024543922394514084,1.0149897336959839,
558089,-0.014978641644120216,0.07389973849058151,0.9961929321289062,
558099,0.012391418218612671,0.06093188002705574,0.9594762325286865,
558109,0.017885107547044754,0.039329081773757935,0.9382240176200867,
558119,-0.0038704678881913424,0.011183610185980797,0.9604445695877075,
558129,-0.007571399211883545,0.0773199126124382,0.9408593773841858,
558139,-0.0038182020653039217,0.09966512769460678,1.0374037027359009,
558149,-0.002780108479782939,-0.018349962309002876,0.9785864949226379,
558159,-0.03677871450781822,0.021833473816514015,1.0194264650344849,
558169,-0.03936116769909859,0.0025077215395867825,1.022764801979065,
558179,-0.013323714956641197,0.18268264830112457,0.9229337573051453,
558189,0.050210680812597275,0.06456619501113892,1.0127369165420532,
558199,0.006630622316151857,0.013944021426141262,0.9699651598930359,
558209,0.011411014012992382,-0.022189708426594734,1.0085903406143188,
558219,0.011782757937908173,-0.02780485711991787,0.9764305949211121,
558229,-0.006558154709637165,0.1699461191892624,0.9933587908744812,
558239,-0.007942741736769676,0.06463707983493805,1.0102267265319824,
558249,-0.017053818330168724,0.03852730616927147,0.9234654307365417,
558259,-0.0057712276466190815,-0.00941509660333395,0.9871518611907959,
558269,-0.016486337408423424,0.11967575550079346,0.9452764391899109,
558279,0.027558129280805588,0.14550140500068665,0.968519389629364,
558289,0.009979626163840294,0.06548434495925903,1.026951789855957,
558299,0.021769782528281212,-0.011729223653674126,1.045052409172058,
558309,-0.02427835203707218,-0.008892407640814781,1.0349997282028198,
558319,-0.0496019683778286,0.043903883546590805,0.9727609157562256,
558329,0.01695050112903118,0.07540283352136612,1.033675193786621,
558339,0.014377997256815434,0.08501610904932022,0.9702555537223816,
558349,0.010556172579526901,0.039039138704538345,0.9517995715141296,
558359,-0.008202072232961655,0.012360522523522377,0.978899359703064,
558369,-0.004780758637934923,0.045432671904563904,0.9564512968063354,
558379,-0.006973042618483305,0.10797104239463806,1.0202560424804688,
558389,-0.009541128762066364,0.0683078020811081,1.0024155378341675,
558399,0.0021191409323364496,0.015591464936733246,1.02206552028656,
558409,-0.004566645715385675,-0.015703938901424408,1.0166385173797607,
558419,-0.02594919130206108,0.08238382637500763,0.9628302454948425,
558429,0.000331541319610551,0.04599621146917343,0.9955683946609497,
558439,0.010794231668114662,0.08729254454374313,0.9769163727760315,
558449,0.024343809112906456,-0.004123040474951267,1.0243443250656128,
558459,-0.024919982999563217,0.04628589004278183,0.994060754776001,
558469,-0.034905172884464264,0.07306763529777527,0.9679551720619202,
558479,0.01675419509410858,0.03494846448302269,1.0261410474777222,
558489,0.0007678677211515605,0.05825723335146904,0.9490877389907837,
558499,0.010223833844065666,0.049024712294340134,0.9520489573478699,
558509,-0.009578774683177471,0.04057709872722626,0.9796377420425415,
558519,0.0026781985070556402,0.08341625332832336,0.9564204216003418,
558529,0.00871442724019289,0.07098503410816193,1.0313533544540405,
558539,-0.014771114103496075,0.022173931822180748,1.020888090133667,
558549,-0.017978161573410034,0.021954093128442764,1.0218597650527954,
558559,-0.005048193968832493,0.0040907589718699455,1.0078402757644653,
558569,-0.016314523294568062,0.09305385500192642,0.9616873860359192,
558579,0.002817764412611723,0.05803796276450157,0.9993579983711243,
558589,0.008761861361563206,0.07005349546670914,0.9927207231521606,
558599,0.029056431725621223,0.010340156964957714,1.0148102045059204,
558609,-0.016659852117300034,0.02262011170387268,1.0007182359695435,
558619,-0.01590336672961712,0.0601692721247673,0.9980846047401428,
558629,0.022947067394852638,0.031181761994957924,1.0189025402069092,
558639,-5.041107579017989e-05,0.023013677448034286,0.9832361936569214,
558649,0.012178672477602959,0.034960828721523285,0.9828107953071594,
558659,-0.001179662998765707,0.011424468830227852,0.9871914386749268,
558669,-0.0033597638830542564,0.06078776717185974,0.9791483283042908,
558679,0.00016564116231165826,0.08163228631019592,1.0156660079956055,
558689,0.0014091478660702705,0.02196650579571724,1.0498827695846558,
558699,-0.020179754123091698,0.026789836585521698,0.9773867130279541,
558709,0.0064531476236879826,-0.0008948703180067241,1.013838529586792,
558719,-0.011272279545664787,0.09410859644412994,0.9752861261367798,
558729,0.020707637071609497,0.10726587474346161,0.9662359952926636,
558739,0.0006980392499826849,0.07257163524627686,1.0548466444015503,
558749,-0.003940915688872337,-0.026986123993992805,1.0103087425231934,
558759,-0.008371999487280846,0.01008443534374237,1.0338035821914673,
558769,-0.013445448130369186,-0.006729770451784134,1.0202019214630127,
558779,-0.0111985569819808,0.10616815090179443,0.9889476895332336,
558789,0.00740284426137805,0.07086972892284393,1.020690679550171,
558799,-0.002755899680778384,0.060360703617334366,1.0083258152008057,
558809,-0.005559575278311968,0.002907572779804468,1.039841651916504,
558819,-0.012648648582398891,-0.003587382612749934,1.0052214860916138,
558829,0.005434020888060331,-0.008663265965878963,1.0072996616363525,
558839,0.01094522699713707,0.006133316550403833,1.0207982063293457,
558849,-0.003619557712227106,0.0669623538851738,0.9946457743644714,
558859,0.012489835731685162,0.029174799099564552,0.9976988434791565,
558869,0.008088534697890282,0.02928784489631653,0.9667412638664246,
558879,0.010050732642412186,0.0023831017315387726,0.9704880714416504,
558889,-0.012780330143868923,0.07089900970458984,0.9356847405433655,
558899,0.0010092596057802439,0.04263271391391754,0.9750781059265137,
558909,0.00802544690668583,0.04420759528875351,1.0024728775024414,
558919,-0.0026881478261202574,0.01769305020570755,0.9927121996879578,
558929,0.016798831522464752,-0.013352676294744015,1.0227882862091064,
558939,-0.027144867926836014,-0.005210363306105137,1.0360649824142456,
558949,0.009632407687604427,0.05080633983016014,1.0109423398971558,
558959,0.0005394844920374453,0.07121719419956207,0.9921835064888,
558969,0.01161255594342947,0.05166248604655266,0.9922382831573486,
558979,-0.020821547135710716,0.015555135905742645,1.0231939554214478,
558989,0.004191843792796135,0.010364318266510963,0.9928246736526489,
558999,0.010209684260189533,-0.010143140330910683,0.9694260954856873,
559009,0.010304918512701988,0.013562798500061035,0.97645503282547,
559019,0.014972366392612457,0.018845293670892715,0.9914016127586365,
559029,0.008514808490872383,0.01496400497853756,0.9943667650222778,
559039,0.013529624789953232,0.0005778530612587929,0.9737818837165833,
559049,-0.015899483114480972,0.006818760652095079,1.0127201080322266,
559059,-0.005294511094689369,0.00581103703007102,1.012904167175293,
559069,-6.529448728542775e-05,0.03612582013010979,1.0191564559936523,
559079,-0.008741755969822407,0.005160634871572256,1.0098336935043335,
559089,-0.013296707533299923,0.04283183813095093,0.9941133856773376,
559099,0.02408037707209587,0.025622054934501648,1.0181410312652588,
559109,0.021813150495290756,0.0074662696570158005,1.0225924253463745,
559119,-0.01915665529668331,-0.008290697820484638,1.019106388092041,
559129,0.014430147595703602,-0.003633062820881605,1.038348913192749,
559139,0.013288561254739761,0.016991227865219116,0.986868143081665,
559149,0.002801294205710292,0.01397301722317934,1.0284569263458252,
559159,-0.006997596472501755,0.05124473199248314,0.9949736595153809,
559169,0.005345925223082304,0.052282460033893585,0.9831355214118958,
559179,-0.01815981976687908,0.01567365601658821,0.9778467416763306,
559189,-0.003117094049230218,-0.01100537832826376,0.9774066209793091,
559199,-0.007133966311812401,0.004751796834170818,1.0038175582885742,
559209,0.003788172034546733,0.10058324038982391,0.9698931574821472,
559219,0.03718745335936546,0.08588273823261261,0.9814285635948181,
559229,-0.004267862066626549,-0.006373033858835697,1.0537059307098389,
559239,0.03369929641485214,-0.023738788440823555,1.0340542793273926,
559249,-0.022724075242877007,-0.01035264227539301,1.0240919589996338,
559259,-0.022702805697917938,0.016816169023513794,1.0012743473052979,
559269,-0.010473234578967094,0.12665683031082153,0.939369797706604,
559279,0.02631075493991375,0.03985239192843437,1.0029913187026978,
559289,0.0034775971435010433,0.06630212813615799,0.9207533001899719,
559299,0.0031203697435557842,-0.008310681208968163,0.9852452278137207,
559309,0.009384752251207829,0.0033054319210350513,0.9546292424201965,
559319,-0.010573909617960453,0.062191128730773926,0.9656442999839783,
559329,-0.006073306314647198,0.09361696243286133,0.9753893613815308,
559339,0.00838957354426384,0.08320803940296173,0.9804918766021729,
559349,0.009334837086498737,-0.014411183074116707,0.9981988072395325,
559359,-0.013912344351410866,0.009641807526350021,1.0052669048309326,
559369,0.013517169281840324,-0.001994993770495057,1.0112489461898804,
559379,-0.004738730378448963,0.08819839358329773,1.0183606147766113,
559389,0.006289539858698845,0.04504314810037613,0.9992286562919617,
559399,-0.012659963220357895,0.01612982153892517,1.0266244411468506,
559409,-0.012854054570198059,0.005102202296257019,1.0395331382751465,
559419,0.022720681503415108,-0.00040396646363660693,1.0368977785110474,
559429,-0.017107024788856506,0.004812475759536028,1.0304253101348877,
559439,-0.00819071289151907,0.05509525537490845,1.0316810607910156,
559449,0.0018203204963356256,0.05082916095852852,1.0140719413757324,
559459,0.008410912938416004,0.020954353734850883,1.0304428339004517,
559469,0.002160716103389859,-0.007940871641039848,1.0266839265823364,
559479,0.012678678147494793,0.00694633461534977,1.007727026939392,
559489,0.005822003353387117,0.006575992330908775,1.0210309028625488,
559499,-0.0065481034107506275,0.02288128063082695,1.0561907291412354,
559509,-0.006077185273170471,0.036306604743003845,1.0025584697723389,
559519,0.00596742145717144,0.02349507436156273,1.0234757661819458,
559529,0.002086884342133999,-0.021590661257505417,1.014228343963623,
559539,0.014063156209886074,-0.015868553891777992,1.008787751197815,
559549,0.01032075472176075,0.023638660088181496,0.9837191104888916,
559559,-0.0009992308914661407,0.018162982538342476,1.0369389057159424,
559569,0.003616847563534975,0.016873488202691078,0.9785814881324768,
559579,0.013754723593592644,0.029169268906116486,0.9960799217224121,
559589,-0.01571848802268505,0.0227797981351614,0.9595246315002441,
559599,0.008329479023814201,0.020834490656852722,0.9588375687599182,
559609,-0.0027207289822399616,0.0145118348300457,1.0101088285446167,
559619,0.0032624583691358566,0.055985111743211746,1.0267887115478516,
559629,0.0048250057734549046,0.03221401199698448,0.981895923614502,
559639,-0.003361473325639963,-0.016473110765218735,0.9932379722595215,
559649,0.0018536543939262629,-0.006725186016410589,1.0332621335983276,
559659,0.0062721529975533485,0.10220380127429962,0.9817021489143372,
559669,0.043419595807790756,0.10873930901288986,0.9718611240386963,
559679,-0.008449453860521317,0.008142203092575073,1.0539122819900513,
559689,-0.0018452223157510161,-0.016193009912967682,1.0315914154052734,
559699,-0.014140362851321697,0.013230232521891594,0.9993339776992798,
559709,0.0028956958558410406,0.055696189403533936,1.022107720375061,
559719,0.006843541748821735,0.1252826303243637,1.0440027713775635,
559729,0.02266189269721508,-0.011676086112856865,1.0216697454452515,
559739,-0.03238660469651222,0.0073482380248606205,1.0839351415634155,
559749,-0.022386997938156128,-0.005940563511103392,1.0590178966522217,
559759,-0.0364527590572834,0.11632034927606583,0.9581992626190186,
559769,0.061977412551641464,0.11902141571044922,0.9975422620773315,
559779,0.0007641757256351411,-0.0017687801737338305,1.0663915872573853,
559789,0.011198937892913818,-0.023130524903535843,1.017199993133545,
559799,0.003520881524309516,-0.03589620441198349,1.03013014793396,
559809,-0.004087311215698719,0.05311911925673485,1.009041666984558,
559819,-0.0008689793176017702,0.11051710695028305,0.975770890712738,
559829,0.011506128124892712,0.04390652850270271,0.9942023158073425,
559839,-0.008904704824090004,-0.008610756136476994,0.9992964267730713,
559849,-0.0072366041131317616,-0.0007608456071466208,0.9561947584152222,
559859,-0.00677322456613183,0.06415525078773499,0.9702845811843872,
559869,0.004356662277132273,0.08222372084856033,0.997112512588501,
559879,0.005163514520972967,0.015233832411468029,0.9722051620483398,
559889,-0.030397476628422737,-0.037895578891038895,0.9936674237251282,
559899,-0.022809406742453575,0.03391195461153984,0.9826882481575012,
559909,0.0036888092290610075,0.07764634490013123,1.0027393102645874,
559919,0.016510607674717903,0.006080550607293844,0.9806500673294067,
559929,-0.010290246456861496,-0.01902669668197632,1.0307276248931885,
559939,0.008451361209154129,-0.017556853592395782,1.017891526222229,
559949,-0.012225382030010223,0.0272522009909153,0.9969244003295898,
559959,0.007223593071103096,0.0358150415122509,0.9940140843391418,
559969,0.008950444869697094,0.04044684022665024,0.9652379751205444,
559979,0.012073805555701256,0.00850843545049429,1.0091153383255005,
559989,-0.007868114858865738,-0.0004905712557956576,0.9583224654197693,
559999,0.008180050179362297,0.013446571305394173,0.9974355101585388,
560009,0.0020320815965533257,0.036215391010046005,1.0172783136367798,
560019,0.0026554393116384745,0.003244851715862751,0.9948168992996216,
560029,-0.0006411011563614011,-0.004139238502830267,1.0071079730987549,
560039,-0.013283004984259605,-0.021742889657616615,1.0002684593200684,
560049,0.006849953904747963,0.007200330495834351,0.9963886141777039,
560059,0.003605466103181243,0.01338554359972477,1.0233489274978638,
560069,0.011757430620491505,0.0021176219452172518,0.9914435148239136,
560079,-0.0006151156267151237,0.0029639541171491146,1.0235614776611328,
560089,-0.007212767377495766,0.0035576154477894306,1.0349246263504028,
560099,-0.005228247493505478,0.0202021524310112,0.9761298894882202,
560109,-0.0018005246529355645,0.0162197258323431,0.999156653881073,
560119,0.005393522791564465,0.0258671585470438,0.965355396270752,
560129,0.01785755529999733,0.0026891203597187996,0.9988279938697815,
560139,-0.0015254877507686615,0.00836983509361744,1.002469539642334,
560149,0.0019118157215416431,0.004029502160847187,0.9928865432739258,
560159,0.0076232608407735825,0.001268447726033628,1.007703423500061,
560169,0.014397789724171162,0.018394889310002327,1.001527190208435,
560179,0.012613904662430286,0.002141376258805394,1.0247246026992798,
560189,-0.008855782449245453,0.029270227998495102,1.014602541923523,
560199,-0.004519329871982336,0.01554865576326847,1.043377161026001,
560209,0.01313170325011015,-0.007600375916808844,1.066641092300415,
560219,-0.005405707750469446,0.015095832757651806,1.0234304666519165,
560229,0.04690684378147125,-0.031629640609025955,1.0654336214065552,
560239,0.003473868127912283,0.015693973749876022,1.0059096813201904,
560249,0.021720070391893387,-0.00022192386677488685,1.017997145652771,
560259,0.021669596433639526,0.002928344765678048,1.0183579921722412,
560269,0.012191788293421268,0.013025528751313686,1.0064247846603394,
560279,0.034667544066905975,-0.004084365908056498,1.0347874164581299,
560289,0.0034265839494764805,0.029796307906508446,1.011781096458435,
560299,0.00930505245923996,0.011015553958714008,1.0469770431518555,
560309,-0.02142886072397232,0.03738657757639885,1.0238250494003296,
560319,-0.01523047685623169,0.049970582127571106,0.9967097043991089,
560329,-0.00216556154191494,0.009775537997484207,1.0496240854263306,
560339,-0.028703687712550163,0.05234160274267197,0.9372466206550598,
560349,-0.011641883291304111,0.025752408429980278,0.9706208109855652,
560359,-0.007674088701605797,0.050468288362026215,0.9683908224105835,
560369,-0.007707919459789991,0.04289538040757179,0.9795937538146973,
560379,-0.010984057560563087,0.0331101156771183,0.9954816699028015,
560389,0.014405714347958565,0.006881097797304392,0.9996530413627625,
560399,-0.0020667968783527613,-0.008869710378348827,0.9975148439407349,
560409,0.006418128497898579,0.005467850714921951,0.9774034023284912,
560419,0.0010838418966159225,0.035404838621616364,0.976809561252594,
560429,-0.0018308274447917938,0.02465011551976204,0.9576719403266907,
560439,0.004336831159889698,0.012130508199334145,0.9756978154182434,
560449,-0.007693280931562185,-0.012959853745996952,0.9852233529090881,
560459,0.0026964726857841015,0.027864521369338036,1.0067574977874756,
560469,0.002045565517619252,0.00593565171584487,0.9900615215301514,
560479,0.008606315590441227,0.021705757826566696,1.038824439048767,
560489,0.0013583673862740397,0.02601649984717369,1.0234802961349487,
560499,0.016100354492664337,0.04460403695702553,0.9932917356491089,
560509,-0.0001556373026687652,0.0158611461520195,0.9660651683807373,
560519,0.019596802070736885,-0.07080249488353729,1.0194003582000732,
560529,0.013279207050800323,0.07460055500268936,1.0121906995773315,
560539,0.0051172394305467606,0.03259796276688576,0.9697281122207642,
560549,-0.00671381177380681,-0.0037810674402862787,1.0041218996047974,
560559,0.00026157466345466673,-0.00697458628565073,1.0432626008987427,
560569,-0.01404476910829544,0.13076773285865784,0.993229329586029,
560579,0.0513823963701725,0.004832827020436525,1.0438122749328613,
560589,-0.011264857836067677,-0.04929419234395027,1.0602014064788818,
560599,-0.0061375536024570465,-0.005187267903238535,1.0523481369018555,
560609,0.0028548294212669134,0.14335186779499054,0.9586055874824524,
560619,0.01757725514471531,-0.004127009306102991,0.9907019734382629,
560629,-0.0007455627201125026,0.01566176302731037,1.0059961080551147,
560639,-0.012767172418534756,0.012358242645859718,1.0013829469680786,
560649,0.00679723359644413,0.050592392683029175,0.9794245362281799,
560659,0.004613455850630999,-0.013318694196641445,1.000367283821106,
560669,-0.0072117457166314125,-0.035514723509550095,1.0128999948501587,
560679,0.001576892682351172,0.01047510001808405,0.9835118651390076,
560689,-0.003035744419321418,0.010416588746011257,1.0024396181106567,
560699,0.013874605298042297,0.03371230512857437,0.9721953272819519,
560709,0.005686284974217415,0.008059556595981121,0.9584054350852966,
560719,-0.027625354006886482,-0.014749119989573956,0.9973152875900269,
560729,0.005739573389291763,-0.005491177551448345,0.9725096821784973,
560739,-0.020574286580085754,0.008181086741387844,1.0237488746643066,
560749,-0.007879359647631645,0.0035554300993680954,1.0503095388412476,
560759,-0.008421036414802074,0.011228848248720169,0.9845806360244751,
560769,0.007611935026943684,0.03677718713879585,1.0003979206085205,
560779,-0.005810894537717104,0.03305821120738983,0.9930403828620911,
560789,-0.0006153618451207876,0.009457499720156193,1.0092697143554688,
560799,-0.0003826780884992331,0.007879753597080708,0.9948473572731018,
560809,0.01468260120600462,-0.015868572518229485,1.0490221977233887,
560819,0.00818782951682806,0.019754434004426003,1.040604829788208,
560829,-0.0013477117754518986,0.010724610649049282,1.0137957334518433,
560839,0.0007924968376755714,0.027374865487217903,1.0295125246047974,
560849,-0.019069047644734383,0.03147338330745697,0.9984623789787292,
560859,0.026687506586313248,0.049191154539585114,0.9808598756790161,
560869,0.03296346217393875,-0.0090810377150774,1.0730255842208862,
560879,0.005118421744555235,-0.03446483239531517,1.0223275423049927,
560889,-0.027800168842077255,0.024073529988527298,0.9925128221511841,
560899,0.01817745342850685,0.026904325932264328,1.034266710281372,
560909,-0.006517666857689619,0.03150846064090729,0.999314546585083,
560919,0.00670789647847414,0.030896270647644997,0.9905686378479004,
560929,-0.012285702861845493,0.018630465492606163,0.9817482233047485,
560939,0.016455093398690224,-0.0009622349170967937,1.0112501382827759,
560949,0.001101797679439187,0.00032212998485192657,1.0339207649230957,
560959,0.0029739055316895247,0.0003640110371634364,1.0224699974060059,
560969,0.005502509884536266,0.025408029556274414,0.971639096736908,
560979,-0.0063870069570839405,0.0022802550811320543,1.0049059391021729,
560989,-0.004748479928821325,0.02279752306640148,1.052008032798767,
560999,0.00631730118766427,0.013294662348926067,0.9939360022544861,
561009,0.0006484282203018665,0.01446184515953064,0.9881842732429504,
561019,-0.014428696595132351,0.0016368662472814322,1.0333815813064575,
561029,-0.007779335603117943,0.036345161497592926,1.0224947929382324,
561039,0.009938803501427174,0.033358700573444366,0.9871904253959656,
561049,0.004506250377744436,0.017219407483935356,1.011344313621521,
561059,0.0019071929855272174,-0.009282590821385384,1.0604454278945923,
561069,-0.017191709950566292,0.017357757315039635,1.0297633409500122,
561079,-0.010570965707302094,-0.00333850784227252,1.000626564025879,
561089,0.0018367076991125941,0.046629611402750015,1.0146032571792603,
561099,0.008109144866466522,0.048793207854032516,1.0338197946548462,
561109,0.013848512433469296,0.03025428205728531,1.005102276802063,
561119,0.018441038206219673,-0.021819666028022766,1.0610857009887695,
561129,-0.0014748803805559874,0.0029382240027189255,1.068947434425354,
561139,-0.024683084338903427,0.08880136162042618,0.9880968332290649,
561149,0.024781104177236557,0.08038658648729324,0.9619609713554382,
561159,0.017931275069713593,-0.012992511503398418,1.0635871887207031,
561169,-0.02904939278960228,-0.01482417806982994,1.0042318105697632,
561179,-0.004136746283620596,-0.01347679365426302,0.9934929609298706,
561189,0.02054847963154316,0.019612537696957588,1.068130373954773,
561199,0.008894212543964386,0.07387309521436691,1.02118980884552,
561209,-0.00107457279227674,0.024523356929421425,0.994610607624054,
561219,-0.0015650372952222824,0.020930038765072823,0.9650368094444275,
561229,0.006947658956050873,-0.005221250467002392,1.0030126571655273,
561239,-0.011373616755008698,0.05402505770325661,1.0046627521514893,
561249,0.010419963859021664,0.05062735453248024,0.9822758436203003,
561259,0.008932037279009819,0.018019424751400948,0.999050498008728,
561269,0.007378037087619305,0.00045079432311467826,0.9985944032669067,
561279,-0.007224098779261112,0.014671508222818375,1.0261257886886597,
561289,0.0006487409118562937,0.008696919307112694,1.040941834449768,
561299,-0.008377352729439735,0.056220293045043945,1.009616494178772,
561309,0.008903373032808304,0.014338991604745388,1.0071579217910767,
561319,-0.02645792067050934,-0.03244442865252495,1.0480788946151733,
561329,0.009880082681775093,-0.029003417119383812,1.0008512735366821,
561339,0.011812213808298111,-0.011631191708147526,1.0629574060440063,
561349,-0.0012687976704910398,0.04048410803079605,1.0198193788528442,
561359,-0.005557469092309475,0.04068290442228317,0.9747459888458252,
561369,0.0027244568336755037,0.0438421368598938,0.9740891456604004,
561379,-0.0007249905611388385,-0.0012757242657244205,0.9697100520133972,
561389,-0.0010253642685711384,0.012941460125148296,0.9937693476676941,
561399,-0.0011691320687532425,0.03436317667365074,0.9998730421066284,
561409,0.03402234613895416,0.10435052961111069,0.957273006439209,
561419,0.018830012530088425,0.003223022446036339,1.043142557144165,
561429,-0.004700576886534691,-0.031004786491394043,1.0272496938705444,
561439,0.0033085704781115055,-0.029206130653619766,1.0292543172836304,
561449,-0.014628815464675426,0.03490208089351654,1.0616214275360107,
561459,-0.0054991161450743675,0.15891072154045105,0.9425082802772522,
561469,0.019965069368481636,0.04977155476808548,0.9418631792068481,
561479,-0.021288011223077774,-0.00676814466714859,0.9937354326248169,
561489,0.03438602015376091,-0.058912649750709534,1.020448088645935,
561499,-0.014759336598217487,0.07185554504394531,0.9925915598869324,
561509,0.016785191372036934,0.05346561595797539,1.008230447769165,
561519,-0.007705367635935545,0.0426606647670269,1.0047237873077393,
561529,0.004062286112457514,-0.008696229197084904,1.0089209079742432,
561539,-0.005319082178175449,0.032039061188697815,1.0124799013137817,
561549,-0.012758411467075348,0.0413556806743145,1.0220988988876343,
561559,0.007973364554345608,0.05518163740634918,1.0067144632339478,
561569,0.011002184823155403,0.014645379967987537,1.0165083408355713,
561579,-0.01969321072101593,0.01509121898561716,1.0628383159637451,
561589,-0.03328372910618782,-0.002864313777536154,1.0358153581619263,
561599,-0.01796118915081024,0.056625060737133026,0.9953765273094177,
561609,0.02322564460337162,0.019661271944642067,1.0084269046783447,
561619,-0.015735596418380737,0.017900947481393814,1.0893501043319702,
561629,-0.0364513136446476,-0.008689542300999165,1.0265676975250244,
561639,0.015894915908575058,0.028535451740026474,1.041128158569336,
561649,0.006946573965251446,0.006946802604943514,1.0357786417007446,
561659,-0.007591805886477232,0.03513282909989357,1.0238913297653198,
561669,-0.009536725468933582,0.03961611166596413,1.00211501121521,
561679,-0.013132922351360321,0.010857242159545422,1.0652034282684326,
561689,0.008733251132071018,-0.01607043482363224,0.9850095510482788,
561699,0.013462523929774761,-0.009765706956386566,0.9732295274734497,
561709,-0.010296345688402653,0.07194731384515762,1.0007859468460083,
561719,-0.011267897672951221,0.08471910655498505,0.9753456115722656,
561729,-0.012801039032638073,0.04615817964076996,0.9328031539916992,
561739,0.014806677587330341,-0.03266328200697899,0.994888186454773,
561749,0.005647463258355856,0.0705321878194809,0.9690513610839844,
561759,0.018556782975792885,0.10110145062208176,0.9950360059738159,
561769,-0.023221900686621666,0.025913385674357414,1.0747463703155518,
561779,-0.04291136562824249,-0.001063785282894969,0.9866655468940735,
561789,0.02652420476078987,0.013380870223045349,1.0416654348373413,
561799,-0.03961053863167763,0.0897803083062172,1.0119355916976929,
561809,0.0269758440554142,0.1658143401145935,0.9721555113792419,
561819,-0.001040983130224049,0.017967190593481064,1.01007878780365,
561829,0.0014580851420760155,-0.016686342656612396,0.9955238699913025,
561839,-0.015775166451931,-0.010565540753304958,0.9434137344360352,
561849,-0.016468584537506104,0.03242615982890129,0.9651408195495605,
561859,-0.009127262979745865,0.06535923480987549,1.0047719478607178,
561869,0.025776324793696404,0.042260896414518356,0.9862121939659119,
561879,-0.0048429518938064575,0.0197590421885252,0.9424356818199158,
561889,-0.017363455146551132,-0.0017099542310461402,0.9874324202537537,
561899,-0.01091908197849989,0.04264931008219719,1.0104016065597534,
561909,0.015985846519470215,0.024719778448343277,0.9913491606712341,
561919,0.00028741644928231835,0.03339191526174545,1.0546724796295166,
561929,-0.010190330445766449,0.0026864653918892145,1.0299890041351318,
561939,0.004756142385303974,0.016556041315197945,1.054427146911621,
561949,-0.012292539700865746,-0.0029334116261452436,1.0351067781448364,
561959,-0.012200924567878246,0.04996536672115326,1.043765664100647,
561969,0.012118864804506302,0.05509258061647415,0.9876400232315063,
561979,-0.001592359971255064,0.01104207243770361,1.0729148387908936,
561989,-0.03178456798195839,-0.013079198077321053,1.0652905702590942,
561999,-0.009039534255862236,-0.01631971448659897,1.022953748703003,
562009,-0.009072424843907356,0.05359828472137451,0.9639764428138733,
562019,0.02016516774892807,0.07780804485082626,1.0318759679794312,
562029,-0.00920424796640873,0.006229674909263849,1.0621366500854492,
562039,0.007693546358495951,-0.018839888274669647,1.024109125137329,
562049,0.008925537578761578,-0.005958082620054483,1.0400526523590088,
562059,-0.00704876147210598,0.061438389122486115,1.0407081842422485,
562069,-0.01069041807204485,0.08279980719089508,1.0044249296188354,
562079,0.022691994905471802,0.013214128091931343,0.991995632648468,
562089,-0.02102464623749256,0.00948198139667511,1.0237350463867188,
562099,0.017140787094831467,0.0016453603748232126,0.9945304989814758,
562109,-0.003761683125048876,0.01027822494506836,0.9888777136802673,
562119,0.009008299559354782,0.005616181995719671,0.9941331148147583,
562129,-0.0033610668033361435,0.020431647077202797,1.0048551559448242,
562139,-0.0018987597431987524,0.018479563295841217,0.981383204460144,
562149,-0.0041900575160980225,0.01792358048260212,0.9594157934188843,
562159,-0.0036913095973432064,-0.001196975470520556,1.0027073621749878,
562169,0.004918240942060947,0.027067305520176888,0.9876918196678162,
562179,-0.005492436233907938,0.011578282341361046,0.9907297492027283,
562189,-0.001297680428251624,0.007272511254996061,1.0151351690292358,
562199,-0.028045890852808952,0.003360666800290346,0.9910812377929688,
562209,-0.005270701367408037,0.014064082875847816,1.0209904909133911,
562219,0.0038224286399781704,0.03216037154197693,1.0270264148712158,
562229,0.006275574676692486,0.03156242519617081,0.9829156994819641,
562239,-0.01890379562973976,0.015532405115664005,0.9976008534431458,
562249,-0.004910731688141823,0.024614449590444565,0.9641720056533813,
562259,0.006486355792731047,0.02683880180120468,0.9122704267501831,
562269,0.0011196851264685392,0.048238515853881836,0.9945295453071594,
562279,-0.007692976854741573,0.03403998538851738,1.0000059604644775,
562289,-0.01463730912655592,0.045373525470495224,0.9988179802894592,
562299,-0.004558817017823458,0.01885521598160267,1.0340580940246582,
562309,-0.025258082896471024,0.04487661272287369,0.9467052221298218,
562319,0.012674903497099876,0.08689168840646744,0.9587571024894714,
562329,-0.014135180972516537,0.08207874000072479,1.02496337890625,
562339,-0.003761954139918089,0.03309820964932442,0.9996697306632996,
562349,-0.00907148141413927,0.016220776364207268,1.044914722442627,
562359,0.020291561260819435,-0.01972036622464657,1.0156410932540894,
562369,-0.003392008366063237,0.008216275833547115,1.0251096487045288,
562379,0.006580621004104614,0.030545463785529137,0.9961123466491699,
562389,0.005596923641860485,0.018848320469260216,1.0022906064987183,
562399,-0.005460493732243776,0.02377491258084774,1.0242016315460205,
562409,-0.014254591427743435,0.004557840526103973,0.9843538403511047,
562419,0.010687957517802715,0.01789652556180954,0.9591108560562134,
562429,0.02506750077009201,0.0034458115696907043,1.0209285020828247,
562439,-0.016729693859815598,0.043535731732845306,1.0376689434051514,
562449,-0.017145538702607155,0.025472361594438553,0.9935006499290466,
562459,-0.011398236267268658,0.0036564539186656475,0.9596077799797058,
562469,0.007129624951630831,0.02784622460603714,0.98750239610672,
562479,-0.009179133921861649,0.033812109380960464,1.0221967697143555,
562489,-0.012097882106900215,0.03725363314151764,1.0003403425216675,
562499,-0.009816792793571949,0.04306149110198021,0.9412344098091125,
562509,0.010411716066300869,0.017987437546253204,0.9842917919158936,
562519,-0.01223372295498848,0.0568772591650486,1.0262947082519531,
562529,-0.01872658170759678,0.0380525104701519,1.0195355415344238,
562539,-0.020459240302443504,0.04176800698041916,0.9726576209068298,
562549,0.009755306877195835,0.014140170067548752,1.0111018419265747,
562559,-0.0248925369232893,0.000539681816007942,0.9970723390579224,
562569,-0.011871318332850933,0.0409335233271122,0.9969862699508667,
562579,-0.0037591669242829084,0.023566942662000656,1.0228265523910522,
562589,0.012391695752739906,-0.003087989753112197,1.0055582523345947,
562599,-0.013834627345204353,0.02281375043094158,1.00278639793396,
562609,-0.004562810529023409,0.025003109127283096,1.0267727375030518,
562619,0.0015441871946677566,0.011537166312336922,1.0370389223098755,
562629,-0.00043737347004935145,-0.009363236837089062,1.0335099697113037,
562639,0.005760351195931435,0.009051848202943802,1.0051418542861938,
562649,-0.00799451395869255,0.023421676829457283,1.007131814956665,
562659,-0.0010798861039802432,0.019774671643972397,0.9960423707962036,
562669,-0.006040508393198252,-0.011183610185980797,1.0196391344070435,
562679,0.002549887401983142,0.015941215679049492,1.0142505168914795,
562689,0.007808709982782602,0.006027274299412966,1.0355998277664185,
562699,-0.0036353592295199633,0.019686104729771614,1.006587266921997,
562709,-0.01274103857576847,0.03842895105481148,1.013484001159668,
562719,-0.0017937490483745933,0.06009049341082573,0.9838651418685913,
562729,0.045303791761398315,-0.002023144392296672,1.0123207569122314,
562739,-0.00650572357699275,0.007489609532058239,1.07573401927948,
562749,-0.0019532633014023304,-0.013326144777238369,1.0525367259979248,
562759,-0.01895037479698658,0.03053579106926918,0.9755027294158936,
562769,0.004286401905119419,0.04760701581835747,0.9777543544769287,
562779,0.0031245420686900616,0.01988576352596283,0.9562958478927612,
562789,-0.0015925980405882,0.027996836230158806,0.9718725681304932,
562799,-0.011395266279578209,0.013309363275766373,1.0019640922546387,
562809,0.007021023891866207,0.011523359455168247,0.9860830903053284,
562819,-0.0071107191033661366,0.021762438118457794,0.9919783473014832,
562829,0.0033947585616260767,0.01036466658115387,1.0094670057296753,
562839,-0.01769324578344822,0.014056107960641384,0.9839920401573181,
562849,0.007041474804282188,0.010271260514855385,0.9633885622024536,
562859,-0.010188763029873371,0.0051251803524792194,1.0265241861343384,
562869,-0.0020775648299604654,-0.0016131357988342643,1.0244812965393066,
562879,-0.01283861044794321,0.007046479266136885,0.994483232498169,
562889,0.012556024827063084,0.030312910676002502,0.9941150546073914,
562899,-0.012909749522805214,0.02203512378036976,0.9781721234321594,
562909,-0.007543627172708511,0.020009325817227364,0.9695041179656982,
562919,0.0035920271184295416,0.02324702963232994,0.9560493230819702,
562929,-0.0029951625037938356,0.048219118267297745,1.0194576978683472,
562939,-0.009106061421334743,0.023549510166049004,1.0400917530059814,
562949,-0.01990603655576706,0.030927518382668495,0.9660579562187195,
562959,-0.0030964280012995005,0.0640750601887703,0.9374851584434509,
562969,0.007877754978835583,0.06111882999539375,1.0643881559371948,
562979,-0.019109901040792465,0.010331977158784866,1.046595811843872,
562989,-0.03794963285326958,-0.011780379340052605,1.0038237571716309,
562999,-0.012455281801521778,0.05375032126903534,1.0048646926879883,
563009,0.0001279622665606439,0.04985859617590904,0.9853050708770752,
563019,0.01432783342897892,0.03256329521536827,0.9876541495323181,
563029,-0.006365677807480097,-0.005830197129398584,0.9709984064102173,
563039,0.009781344793736935,-0.0008333957521244884,1.015181541442871,
563049,-0.001918524969369173,0.07013832777738571,0.9687608480453491,
563059,0.0012838680995628238,0.018795829266309738,1.0050522089004517,
563069,-0.0075630671344697475,0.008165557868778706,0.9637348055839539,
563079,-0.0065709990449249744,0.002627320121973753,0.9651235938072205,
563089,0.005066919606178999,0.04937715828418732,1.011116623878479,
563099,0.006667476613074541,-0.0022950051352381706,1.0076106786727905,
563109,-0.0196627676486969,0.0011352223809808493,0.9839195609092712,
563119,-0.0072207325138151646,0.013858841732144356,1.0002689361572266,
563129,-0.003330234671011567,0.023783551529049873,1.0269426107406616,
563139,0.010553642176091671,0.04392806440591812,0.9873597621917725,
563149,0.005586401559412479,-0.0215452890843153,0.9873075485229492,
563159,0.015303809195756912,-0.012490053661167622,1.0505762100219727,
563169,0.00041367829544469714,0.07120199501514435,0.9834635853767395,
563179,-0.024761926382780075,0.006908245850354433,0.9488328695297241,
563189,0.0046998849138617516,0.006201863754540682,0.9795730710029602,
563199,0.007938870228827,0.02161938138306141,1.0239956378936768,
563209,-0.004227692726999521,0.019810106605291367,1.0264853239059448,
563219,-0.022239211946725845,-0.039480164647102356,0.9768129587173462,
563229,-0.004349467810243368,0.10196103155612946,0.9922417998313904,
563239,0.030561160296201706,0.1392972469329834,1.0142062902450562,
563249,-0.010720925405621529,-0.019164562225341797,1.0210142135620117,
563259,0.010705338791012764,-0.03492909297347069,0.9868198037147522,
563269,-0.005907637532800436,0.054575081914663315,1.00471830368042,
563279,0.026795407757163048,0.030696041882038116,1.0026075839996338,
563289,0.005123715382069349,-0.006183577701449394,0.9698384404182434,
563299,0.0022199663799256086,0.004795000422745943,0.982083797454834,
563309,-0.005124330520629883,0.023180728778243065,0.9965350031852722,
563319,0.002515137894079089,-0.0023957225494086742,0.9802072048187256,
563329,-0.011334354989230633,0.0187692791223526,0.9711971879005432,
563339,-0.017993640154600143,0.0007531701703555882,0.9811923503875732,
563349,-0.0072401720099151134,0.024312101304531097,1.0394272804260254,
563359,-0.0018370390171185136,0.00527094816789031,1.0205280780792236,
563369,-0.012624873779714108,0.027037981897592545,0.9846966862678528,
563379,-0.009491235949099064,0.022214578464627266,0.9664519429206848,
563389,0.003846821142360568,0.019119830802083015,0.9986004829406738,
563399,0.0049481503665447235,-0.010999584570527077,1.0748941898345947,
563409,-0.04216949641704559,0.004577648360282183,1.0531871318817139,
563419,-0.0026969939935952425,0.013628189451992512,1.0198396444320679,
563429,0.002527510281652212,0.044222764670848846,0.9758206009864807,
563439,0.04905927553772926,-0.016247130930423737,1.0481544733047485,
563449,-0.00484473304823041,0.017242688685655594,1.0629688501358032,
563459,-0.002947899280115962,0.032506171613931656,1.0359747409820557,
563469,0.0016699251718819141,0.04754163324832916,1.0141973495483398,
563479,0.007534918840974569,0.014868062920868397,1.0015171766281128,
563489,-0.0075903176330029964,-0.014942709356546402,1.0511595010757446,
563499,0.003271005116403103,0.00890231505036354,1.0360658168792725,
563509,0.0007522422820329666,0.03847514092922211,1.0077714920043945,
563519,-0.002111918991431594,0.050956662744283676,1.000194787979126,
563529,-0.016234584152698517,-0.007497637066990137,0.9696798920631409,
563539,8.371002331841737e-05,-0.010007630102336407,0.987694263458252,
563549,-0.007479403167963028,0.013522777706384659,0.978496789932251,
563559,0.004303318448364735,0.028449388220906258,1.016076922416687,
563569,0.0023323125205934048,0.06181369349360466,0.964776337146759,
563579,0.01338078361004591,-0.0038309500087052584,0.995902419090271,
563589,0.006781437899917364,0.055333930999040604,0.9980949759483337,
563599,-0.018202556297183037,0.009509950876235962,1.0106637477874756,
563609,-0.01975090242922306,0.024062421172857285,1.0011310577392578,
563619,0.0034116748720407486,0.06566184014081955,0.9580793976783752,
563629,-0.01000596210360527,-0.019879480823874474,1.0136308670043945,
563639,-0.002591227414086461,0.0062553598545491695,1.0399446487426758,
563649,-0.021948035806417465,0.024620454758405685,0.946542501449585,
563659,0.0009723049006424844,0.05962657928466797,0.9766919016838074,
563669,-0.014606233686208725,0.06544245779514313,0.9704689383506775,
563679,-0.016879510134458542,-0.03706323355436325,0.9734286665916443,
563689,0.006910004653036594,0.09245222061872482,0.9598305821418762,
563699,0.02307692915201187,0.11664078384637833,0.9652794003486633,
563709,-0.0009132385021075606,0.01813635416328907,1.0262892246246338,
563719,-0.008262981660664082,-0.03392800688743591,1.0514830350875854,
563729,-0.0020842873491346836,-0.013993236236274242,1.0344051122665405,
563739,-0.005936882458627224,0.030715448781847954,1.0108238458633423,
563749,0.002113032853230834,0.0064313472248613834,1.0037137269973755,
563759,0.009457388892769814,-0.008874285034835339,1.0330721139907837,
563769,-0.003822293132543564,-0.0020537583623081446,1.041243553161621,
563779,-0.0020506398286670446,0.004571577999740839,1.0421987771987915,
563789,-0.009628674015402794,-0.0011390516301617026,1.013401985168457,
563799,0.0024124577175825834,-0.011197557672858238,1.0019419193267822,
563809,0.014320178888738155,0.01230174396187067,0.9954752922058105,
563819,-0.003068179590627551,0.01672321744263172,1.039405107498169,
563829,-0.028232241049408913,0.010033312253654003,1.010805606842041,
563839,-0.005159946158528328,-0.0433688685297966,1.0367424488067627,
563849,-0.013177028857171535,0.04404545575380325,1.0315372943878174,
563859,-0.012628491967916489,0.025173582136631012,1.0015476942062378,
563869,-0.0012650579446926713,0.06713638454675674,0.9324520826339722,
563879,0.007081950083374977,0.003524266416206956,1.0106050968170166,
563889,-0.0246753953397274,0.027798200026154518,1.0164785385131836,
563899,0.00448971102014184,-0.001757796504534781,1.023276448249817,
563909,-0.0090900007635355,0.023317959159612656,1.0284401178359985,
563919,0.00439826026558876,-0.007861500605940819,1.0415222644805908,
563929,-0.012818138115108013,-0.0027694501914083958,0.9696358442306519,
563939,-0.011600608006119728,-0.011948250234127045,0.9604628682136536,
563949,0.002651118440553546,0.03516998142004013,0.9898600578308105,
563959,0.006874566897749901,0.007759973406791687,1.043682336807251,
563969,-0.026187635958194733,0.01392449252307415,1.0615370273590088,
563979,-0.013460777699947357,-0.01692792773246765,1.008178949356079,
563989,0.024884473532438278,0.13502351939678192,0.9766404032707214,
563999,0.0050584785640239716,0.04748258739709854,0.998999834060669,
564009,0.0007759059080854058,-0.007370435167104006,1.0390580892562866,
564019,0.008012257516384125,0.0159713476896286,1.037746787071228,
564029,-0.012346066534519196,0.13190002739429474,1.0578317642211914,
564039,-0.0068883225321769714,-0.031719379127025604,1.0120835304260254,
564049,-0.03165274113416672,-0.019840514287352562,1.0128743648529053,
564059,-0.0012551408726722002,0.0676378458738327,1.0226444005966187,
564069,0.0030688741244375706,0.05388182774186134,1.0042294263839722,
564079,0.024091189727187157,-0.0024287919513881207,1.0396925210952759,
564089,-0.02077740989625454,-0.02157762087881565,1.040246844291687,
564099,-0.0045395297929644585,-0.008005838841199875,0.9947801828384399,
564109,0.009338662959635258,0.01646753028035164,0.991803765296936,
564119,-0.0037481447216123343,0.00971344392746687,1.0212215185165405,
564129,-0.02320072241127491,0.005028631072491407,0.9967231750488281,
564139,-0.01717814989387989,-0.006096518132835627,0.9847732186317444,
564149,0.013256066478788853,0.01647910475730896,0.9661651253700256,
564159,0.004923948086798191,0.015788322314620018,1.0381808280944824,
564169,-0.012913091108202934,0.05064835026860237,1.0107842683792114,
564179,-0.010023266077041626,0.015033502131700516,0.9781696796417236,
564189,-0.005295677110552788,0.03212899714708328,0.9356023073196411,
564199,-0.003528268076479435,-0.014282376505434513,1.0215600728988647,
564209,0.0017343044746667147,0.028694642707705498,1.0063118934631348,
564219,0.008432283066213131,-0.024573203176259995,1.005841851234436,
564229,0.019292620941996574,-0.021348927170038223,1.0337380170822144,
564239,-0.04640358313918114,-0.008835069835186005,0.9943427443504333,
564249,-0.005722875706851482,0.07810892909765244,1.0101383924484253,
564259,0.014622448943555355,0.05284719541668892,0.9683469533920288,
564269,-0.002798189176246524,-0.002950134454295039,0.9986166954040527,
564279,-0.02070029266178608,0.020005451515316963,0.9637401103973389,
564289,-0.016122989356517792,-0.002028175164014101,0.9581282138824463,
564299,0.01293806079775095,0.02289980836212635,0.9801880717277527,
564309,-0.00886575784534216,0.00031461974140256643,1.0084474086761475,
564319,0.0020935817155987024,0.02340921200811863,1.0288854837417603,
564329,0.00839061476290226,0.04401158168911934,0.9972730278968811,
564339,-0.010655876249074936,0.021547816693782806,1.0114747285842896,
564349,0.00750625878572464,0.003964989446103573,1.0176962614059448,
564359,-0.007725621107965708,-0.027465371415019035,0.9936996102333069,
564369,0.012031245976686478,-0.008743646554648876,0.9994233846664429,
564379,-0.033510029315948486,0.010352241806685925,1.0278725624084473,
564389,-0.012781578116118908,0.03128564730286598,0.959445059299469,
564399,0.0055894991382956505,0.05377303436398506,0.9175411462783813,
564409,0.01721000485122204,-0.004746404942125082,1.0225633382797241,
564419,-0.02026761695742607,0.016167577356100082,1.041961908340454,
564429,-0.018105674535036087,0.0703568235039711,0.9677739143371582,
564439,0.00853197555989027,0.04287431016564369,0.9734290242195129,
564449,0.008541331626474857,-0.0033270034473389387,0.991827666759491,
564459,-0.003785523120313883,-0.014761438593268394,0.9860735535621643,
564469,-0.013177765533328056,0.057582952082157135,1.011133074760437,
564479,0.013083004392683506,0.0023479454685002565,0.9927570223808289,
564489,-0.010004771873354912,-0.013580785132944584,1.0436444282531738,
564499,0.010436742566525936,0.015663249418139458,1.044297695159912,
564509,-0.003585897386074066,0.01088227890431881,1.0018284320831299,
564519,0.0017494508065283298,0.05233178287744522,1.0083435773849487,
564529,-0.02488699182868004,0.017247041687369347,1.028631329536438,
564539,0.015368334017693996,0.005056267604231834,1.0010535717010498,
564549,0.0003094728454016149,-0.01582138054072857,1.0196644067764282,
564559,0.006212980020791292,-0.013167795725166798,1.0279135704040527,
564569,-0.009651956148445606,0.008777059614658356,0.9863312244415283,
564579,0.0060497792437672615,0.027620811015367508,1.000242829322815,
564589,-0.010670331306755543,0.005714211147278547,0.987037718296051,
564599,-0.0011100898263975978,0.002963514532893896,0.9694437384605408,
564609,0.0156572125852108,0.011127609759569168,0.9841291904449463,
564619,-0.009516512043774128,0.024966441094875336,1.0219979286193848,
564629,0.004551551770418882,0.00048061387497000396,1.0298116207122803,
564639,0.0002706061932258308,0.020724741742014885,1.0057682991027832,
564649,0.0035738181322813034,0.01123853214085102,1.0163068771362305,
564659,-0.015114628709852695,0.03640013933181763,0.9593457579612732,
564669,0.005354799330234528,0.03245004639029503,0.9692350625991821,
564679,-0.012331731617450714,0.116767019033432,1.0185712575912476,
564689,0.0012176533928140998,0.012254476547241211,0.9817352294921875,
564699,0.0013454154832288623,0.004103946965187788,1.018628716468811,
564709,0.029995229095220566,-0.019860420376062393,1.0413464307785034,
564719,0.006317321676760912,0.05974173545837402,1.0490659475326538,
564729,-0.00937878992408514,0.039535459131002426,0.9915115237236023,
564739,-0.0019170944578945637,0.03500648960471153,1.0013171434402466,
564749,0.01360598485916853,0.02001481130719185,1.0339282751083374,
564759,0.008495637215673923,-0.017234455794095993,0.9973281025886536,
564769,0.016905872151255608,0.012789549306035042,0.977506697177887,
564779,-0.010642698965966702,-0.00565689941868186,1.0490772724151611,
564789,-0.00896685291081667,0.01038016565144062,1.0165897607803345,
564799,0.011869818903505802,0.016498232260346413,0.9897119402885437,
564809,-0.008795594796538353,0.006217155139893293,0.990605354309082,
564819,-0.004608694929629564,-0.0065674190409481525,0.9852675795555115,
564829,0.01100216992199421,0.027927687391638756,0.97817462682724,
564839,-0.003943493124097586,-0.008835175074636936,1.0284947156906128,
564849,0.0007821857579983771,0.030576851218938828,0.9830383658409119,
564859,-0.004997993353754282,0.009459776803851128,0.990342378616333,
564869,-0.01865205727517605,0.017195550724864006,1.0078006982803345,
564879,-0.0015203069197013974,0.03709341958165169,0.9809739589691162,
564889,0.009886006824672222,0.03904741257429123,0.9629663825035095,
564899,0.03322664648294449,-0.03314882889389992,1.0521845817565918,
564909,-0.0021625072695314884,-0.012311817146837711,1.042039394378662,
564919,-0.015200969763100147,0.007386001292616129,1.0088262557983398,
564929,-0.0031725093722343445,0.027491649612784386,1.0381669998168945,
564939,-0.019612884148955345,0.04201774671673775,0.9955886006355286,
564949,0.023330237716436386,0.09614770114421844,0.9530618786811829,
564959,0.0005210363888181746,0.02883460558950901,1.034480333328247,
564969,0.009664696641266346,-0.007589829619973898,1.0108263492584229,
564979,-0.001332173473201692,-0.02960880473256111,0.9895632863044739,
564989,0.003792374860495329,-0.014424691908061504,1.0385761260986328,
564999,-0.011115305125713348,0.07382190227508545,1.011279582977295,
565009,0.013622955419123173,0.012518106028437614,0.9926938414573669,
565019,-0.013684259727597237,0.0011192113161087036,0.9675420522689819,
565029,-0.01648843102157116,-0.006057070568203926,0.9904111623764038,
565039,-0.0024039263371378183,0.03395012393593788,1.0056777000427246,
565049,0.0012779872631654143,-0.0009017536067403853,1.0151445865631104,
565059,0.00575899938121438,0.0345948152244091,1.009540319442749,
565069,-0.020192693918943405,-0.011626644991338253,1.014528512954712,
565079,0.004471177700906992,-2.59951593761798e-05,1.0308538675308228,
565089,-0.002131685148924589,0.015531990677118301,0.9816842675209045,
565099,0.011452329345047474,0.03830527141690254,1.0112428665161133,
565109,0.01035867165774107,0.02712039276957512,0.9857228398323059,
565119,-0.011931652203202248,0.001095128827728331,0.9532926082611084,
565129,-0.004323533270508051,-0.008816419169306755,0.973534107208252,
565139,-0.012400094419717789,-0.011457930319011211,0.9987809062004089,
565149,0.01963406801223755,0.05146198719739914,0.9818791151046753,
565159,0.01074974238872528,-0.0077374838292598724,1.0623234510421753,
565169,0.027360226958990097,-0.030484460294246674,1.0376980304718018,
565179,-0.019397182390093803,0.03372890502214432,1.0025478601455688,
565189,-0.005247178487479687,0.05417443811893463,0.9950820207595825,
565199,0.00013505021343007684,0.04869343340396881,0.9578644037246704,
565209,0.022299285978078842,0.0024410325568169355,0.9848232269287109,
565219,-0.014975977130234241,0.0036689757835119963,0.9826014637947083,
565229,-0.0010565425036475062,0.004936467856168747,1.0211108922958374,
565239,-0.0039687021635472775,0.03725831210613251,1.0046837329864502,
565249,0.015784382820129395,0.007048381958156824,1.008159875869751,
565259,-0.003735986305400729,0.028087161481380463,0.9924942255020142,
565269,-0.00028128031408414245,-0.008706973865628242,1.000054955482483,
565279,-0.014157253317534924,0.0029745453502982855,0.9882454872131348,
565289,-0.0017346721142530441,0.0007405172800645232,1.0119199752807617,
565299,-0.009055747650563717,0.022221073508262634,1.0055737495422363,
565309,-0.0024469285272061825,0.00158247584477067,0.9987317323684692,
565319,0.0044028726406395435,-0.0023035823833197355,1.037766933441162,
565329,-0.018897872418165207,-0.019583741202950478,1.0310639142990112,
565339,-0.007425321731716394,0.005264624487608671,0.9838167428970337,
565349,0.02105153724551201,0.014611280523240566,0.9937858581542969,
565359,0.019083471968770027,0.01705239526927471,1.0392606258392334,
565369,-0.004522991366684437,0.003115922911092639,1.0102784633636475,
565379,0.0024019915144890547,-0.019855909049510956,1.0425903797149658,
565389,-0.01739928498864174,0.023228712379932404,1.0183131694793701,
565399,-0.014878803864121437,0.06642623245716095,1.008317232131958,
565409,-0.00135314732324332,0.04748229309916496,0.9415704607963562,
565419,0.031449854373931885,-0.04582468420267105,1.0156947374343872,
565429,-0.002068297704681754,-0.006385007873177528,1.0469236373901367,
565439,-0.009893333539366722,0.10219864547252655,0.9984399676322937,
565449,-0.0025593095924705267,0.05143599212169647,0.9694749116897583,
565459,0.00759710231795907,-0.031193038448691368,1.0231510400772095,
565469,-0.011101216077804565,0.02309083379805088,1.04442298412323,
565479,-0.023232951760292053,0.029644429683685303,1.026080846786499,
565489,-0.013229322619736195,0.06765453517436981,1.0078954696655273,
565499,0.030831553041934967,0.011700490489602089,1.0013177394866943,
565509,0.00728606665506959,0.008933665230870247,1.0629116296768188,
565519,-0.00826465617865324,-0.014447265304625034,1.0164319276809692,
565529,-0.009845469146966934,0.018223531544208527,0.9970806837081909,
565539,0.03055558353662491,0.04823629558086395,1.0290614366531372,
565549,0.012787021696567535,0.013241001404821873,1.0181130170822144,
565559,0.005185488611459732,-0.00248295278288424,0.9848439693450928,
565569,-0.0018972317920997739,-0.008237386122345924,1.0048116445541382,
565579,0.0028724102303385735,0.055814702063798904,1.015011191368103,
565589,-0.020542245358228683,0.022848928347229958,0.979326069355011,
565599,-0.01082710362970829,0.016441194340586662,0.9500892758369446,
565609,-0.005678939167410135,-0.010576042346656322,0.9965960383415222,
565619,-0.010844179429113865,0.06566175073385239,0.9917774200439453,
565629,0.054107747972011566,-0.032635532319545746,1.0141979455947876,
565639,-0.007379758171737194,-6.240239599719644e-05,1.0701864957809448,
565649,-0.009007084183394909,-0.021369658410549164,1.028171420097351,
565659,-0.022893069311976433,0.04687497392296791,1.0062129497528076,
565669,0.006906226277351379,0.039939578622579575,0.984160840511322,
565679,-0.0023281106259673834,0.017874648794531822,0.9917564988136292,
565689,0.004099573474377394,0.008624061942100525,0.9628468155860901,
565699,0.013470682315528393,-0.013210073113441467,0.9852771162986755,
565709,0.0018445317400619388,-0.002666121581569314,1.007271647453308,
565719,-0.0016385497292503715,-0.007513811811804771,0.9947790503501892,
565729,0.001705098315142095,0.023778628557920456,0.9858536720275879,
565739,-0.009095432236790657,0.003527611494064331,1.0338249206542969,
565749,-0.02074170857667923,0.0017667122883722186,1.0195001363754272,
565759,-0.00278782332316041,-0.00806224811822176,0.9898099303245544,
565769,0.0038851979188621044,0.012437655590474606,0.9993523359298706,
565779,0.0033455451484769583,0.006018088199198246,1.0637073516845703,
565789,-0.008367127738893032,-0.005904659163206816,1.0466235876083374,
565799,0.0023356503807008266,-0.017592379823327065,0.9991601705551147,
565809,-0.009829943999648094,0.05567207559943199,0.9698553681373596,
565819,0.03781825676560402,0.009487728588283062,1.0404636859893799,
565829,-0.01889529451727867,0.015747373923659325,1.0448591709136963,
565839,0.008872810751199722,-0.037621017545461655,1.0229275226593018,
565849,-0.008645827881991863,0.028206683695316315,1.012851595878601,
565859,-0.0004944960819557309,0.028468845412135124,1.0061107873916626,
565869,0.004132219590246677,0.0469428226351738,1.0148636102676392,
565879,0.023319819942116737,0.009847637265920639,1.0158430337905884,
565889,-0.00786595419049263,-0.009093821980059147,1.0134541988372803,
565899,-0.0018299275543540716,0.006464418955147266,1.0249367952346802,
565909,0.0008420730009675026,0.0346013605594635,0.9997161030769348,
565919,0.012920082546770573,0.02111193723976612,1.0137853622436523,
565929,-0.010112561285495758,-0.009868763387203217,1.0254955291748047,
565939,-0.005528201814740896,-0.009982055984437466,1.0326249599456787,
565949,-0.00897478498518467,0.018008366227149963,0.9932705163955688,
565959,0.007787512615323067,0.04273386299610138,0.9973726868629456,
565969,-0.015186564065515995,-0.010303040966391563,0.9791227579116821,
565979,0.015048847533762455,-0.04100599139928818,1.0442368984222412,
565989,-0.012378000654280186,0.0434846431016922,1.0075739622116089,
565999,-0.004517900291830301,0.08203516155481339,0.9797856211662292,
566009,-0.006382908672094345,0.017206022515892982,0.9339379668235779,
566019,0.02905985713005066,-0.06755983084440231,1.0347305536270142,
566029,-0.003265499137341976,0.14956139028072357,1.0274946689605713,
566039,-0.028549956157803535,0.05155180022120476,1.000920057296753,
566049,-0.029738059267401695,0.027357658371329308,0.914500892162323,
566059,0.013786407187581062,-0.03050001710653305,0.9985756874084473,
566069,-0.010285605676472187,0.14928622543811798,1.014631748199463,
566079,0.007874522358179092,0.011261215433478355,1.0184013843536377,
566089,-0.022402556613087654,0.00199627922847867,0.968349277973175,
566099,0.004562708083540201,-0.007724573370069265,0.9979279637336731,
566109,-0.0008898569503799081,0.04428202286362648,1.0162854194641113,
566119,0.022683972492814064,0.00411539850756526,0.9951391220092773,
566129,-0.008529458194971085,0.00898960791528225,0.9978476762771606,
566139,0.004171193111687899,0.0014423379907384515,1.0204488039016724,
566149,-0.01416410505771637,0.01671016961336136,1.0149753093719482,
566159,0.007474323734641075,0.014500371180474758,0.9980913400650024,
566169,-0.003942485898733139,0.012147301807999611,0.9871640205383301,
566179,-0.019270669668912888,8.941369742387906e-05,1.0294520854949951,
566189,-0.01645226776599884,0.010846057906746864,1.008457899093628,
566199,0.0029145258013159037,0.006481760181486607,0.9920541644096375,
566209,0.005110957659780979,0.01015679445117712,0.9773045778274536,
566219,-0.011568935588002205,-0.014814077876508236,1.0348131656646729,
566229,-0.017784835770726204,0.006096277851611376,1.0166723728179932,
566239,-0.010559420101344585,-0.008127518929541111,0.9753058552742004,
566249,-0.0020227290224283934,0.017919223755598068,0.9684772491455078,
566259,0.006037500221282244,0.020540226250886917,1.0172295570373535,
566269,-0.016689909622073174,0.025276076048612595,1.0227209329605103,
566279,-0.022356266155838966,-0.014653175137937069,0.9762489199638367,
566289,-0.014608201570808887,0.01591002754867077,0.9496256709098816,
566299,0.014942607842385769,0.044504646211862564,0.9872168302536011,
566309,-0.002960300538688898,0.03628164902329445,1.0304478406906128,
566319,0.01323478203266859,-0.023809941485524178,1.0044200420379639,
566329,-0.01826692558825016,0.0011754464358091354,1.0290565490722656,
566339,-0.010051925666630268,0.08749089390039444,1.0120526552200317,
566349,0.00449523376300931,0.0866507887840271,0.9491204619407654,
566359,0.03338804468512535,-0.011481235735118389,1.0061923265457153,
566369,-0.05440378934144974,0.022337600588798523,0.9482318758964539,
566379,-0.017716700211167336,0.1015547588467598,0.9737634658813477,
566389,0.02666649967432022,0.02523012086749077,0.9690986275672913,
566399,-1.144397356256377e-05,-0.057598456740379333,0.9915437698364258,
566409,0.002299260115250945,0.060269828885793686,1.032804012298584,
566419,-0.008964127860963345,0.04834037274122238,0.995803952217102,
566429,0.011088652536273003,0.010481555946171284,1.0011866092681885,
566439,0.0015279001090675592,-0.031760621815919876,1.0135464668273926,
566449,-0.001716008991934359,-0.022155465558171272,1.0032726526260376,
566459,0.005699973087757826,0.04271414503455162,0.9688571095466614,
566469,-0.015059077180922031,-0.00964202731847763,0.9998108744621277,
566479,-0.00956153217703104,0.0002752117288764566,0.9535940289497375,
566489,-0.013998253270983696,0.011003626510500908,0.9606491923332214,
566499,-0.01609678752720356,0.018948994576931,0.9892770648002625,
566509,0.016011111438274384,-0.009345722384750843,0.9757040739059448,
566519,-0.016585344448685646,-0.01338657271116972,1.037362813949585,
566529,-0.015822136774659157,-0.012154916301369667,1.0244474411010742,
566539,0.0021462664008140564,-0.01608746126294136,0.9919142723083496,
566549,-0.011893333867192268,0.01684129424393177,0.9980141520500183,
566559,-0.01648838259279728,0.008865655399858952,0.9665776491165161,
566569,-0.023565813899040222,0.00821047555655241,0.952436625957489,
566579,0.007373081985861063,0.013844301924109459,0.9818836450576782,
566589,0.0061513688415288925,0.03765743970870972,0.9654421210289001,
566599,0.02473577857017517,0.029248178005218506,0.9823575615882874,
566609,-0.02074611186981201,0.02410130202770233,1.053434133529663,
566619,-0.009488287381827831,-0.012444100342690945,0.9854015707969666,
566629,-0.01564657874405384,0.04079297557473183,0.9514430165290833,
566639,0.01474845502525568,0.04848356544971466,0.9918867349624634,
566649,0.0031322266440838575,0.052267078310251236,0.9689306616783142,
566659,0.03375943750143051,-0.018204426392912865,1.026139497756958,
566669,-0.03575584664940834,0.03954773396253586,1.0182143449783325,
566679,-0.01784711331129074,0.09089463204145432,0.9984567761421204,
566689,-0.012163207866251469,0.04577028378844261,0.9717647433280945,
566699,-0.001313890446908772,-0.027388250455260277,1.0110456943511963,
566709,-0.005498149432241917,0.06850245594978333,1.0236036777496338,
566719,-0.002459781477227807,0.043626148253679276,1.0170700550079346,
566729,0.007149651180952787,0.03074832819402218,1.0094419717788696,
566739,-0.015884215012192726,-0.038298483937978745,1.034212350845337,
566749,-0.015355919487774372,-0.028443526476621628,1.0355864763259888,
566759,-0.018528826534748077,0.019701676443219185,0.9916136264801025,
566769,0.003729472402483225,0.02279362827539444,0.9888870716094971,
566779,0.018981672823429108,-0.010585213080048561,1.0143152475357056,
566789,0.003339687827974558,-0.014706512913107872,0.9921220541000366,
566799,0.0060928696766495705,0.026008741930127144,1.0021976232528687,
566809,0.011148197576403618,0.011832219548523426,0.9614848494529724,
566819,-0.006377831567078829,-0.007743139751255512,0.9923837184906006,
566829,-0.01580115593969822,0.002625810680910945,0.981079638004303,
566839,0.004396292380988598,0.036703772842884064,0.976922869682312,
566849,0.026347946375608444,0.014075198210775852,1.0232033729553223,
566859,-0.03704221919178963,-0.005257477052509785,1.0389370918273926,
566869,-0.0023857257328927517,0.007683287374675274,1.0554766654968262,
566879,-0.0009174969745799899,0.06348326057195663,0.9636307954788208,
566889,0.018415391445159912,0.004948211833834648,0.9877843260765076,
566899,0.02787240594625473,-0.03480338677763939,1.045172095298767,
566909,0.008507088758051395,-0.017359687015414238,1.0142470598220825,
566919,-0.017407415434718132,0.07421942055225372,0.9647524952888489,
566929,0.02532341703772545,0.02550913766026497,1.014862060546875,
566939,0.0033620279282331467,0.0019427099032327533,1.0290660858154297,
566949,-0.003498875768855214,0.0019420911557972431,1.001468300819397,
566959,-0.02358108013868332,0.04568742588162422,1.0050976276397705,
566969,0.019667362794280052,-0.012768161483108997,1.027521014213562,
566979,-0.0033633497077971697,0.027970319613814354,0.975307047367096,
566989,-0.004612463992089033,-0.0022533093579113483,1.0128045082092285,
566999,-0.01876748725771904,0.013351310975849628,0.9898656606674194,
567009,0.018415924161672592,-0.03315594047307968,0.9921954274177551,
567019,0.0048773582093417645,-0.0016961228102445602,1.0251156091690063,
567029,0.015271417796611786,-0.004192230757325888,1.0132522583007812,
567039,-0.021336369216442108,0.002577252686023712,0.9800007939338684,
567049,0.008013478480279446,0.0034646501298993826,0.995776355266571,
567059,-0.005713535938411951,-0.0007377467700280249,1.0339821577072144,
567069,-0.001589593244716525,-0.007633619010448456,1.003353476524353,
567079,-0.019515156745910645,-0.0016192238545045257,0.9989402890205383,
567089,0.0017577700782567263,0.012018555775284767,1.0226788520812988,
567099,0.0005402052775025368,0.008813192136585712,1.020337700843811,
567109,0.009750357829034328,0.021028002724051476,0.9692649245262146,
567119,-0.005088622681796551,0.004019768442958593,0.9399816393852234,
567129,-0.0039060807321220636,0.007649193052202463,1.0139377117156982,
567139,-0.005992377642542124,0.053807687014341354,1.0075855255126953,
567149,-0.006349553354084492,0.016175061464309692,0.9712640047073364,
567159,0.017873477190732956,0.03227325901389122,0.9913419485092163,
567169,-0.00044470542343333364,0.08287769556045532,1.021838903427124,
567179,0.005961564835160971,0.07552993297576904,0.9849703907966614,
567189,-0.02593124471604824,-0.018267463892698288,1.007500410079956,
567199,-0.0036014490760862827,0.0264752060174942,1.0338650941848755,
567209,-0.006642098072916269,0.12230459600687027,1.0164598226547241,
567219,0.007784158922731876,0.0341632254421711,1.0166585445404053,
567229,0.01829717867076397,-0.059847403317689896,1.0347999334335327,
567239,-0.02530076913535595,0.009627639316022396,1.0110938549041748,
567249,0.0017926543951034546,0.10464956611394882,0.9883728623390198,
567259,-0.014173140749335289,0.016145270317792892,1.004250407218933,
567269,-0.005153082776814699,-0.008480721153318882,0.9777997136116028,
567279,-0.026069609448313713,0.03384333848953247,0.9745280146598816,
567289,0.018454641103744507,0.04559996351599693,0.975775957107544,
567299,0.0017729527316987514,0.012673255056142807,1.011574625968933,
567309,-0.027573509141802788,-0.025091245770454407,1.015703797340393,
567319,-0.011563426814973354,0.005309913773089647,0.9946643114089966,
567329,0.006646769121289253,0.0035702541936188936,0.9709153175354004,
567339,-0.011308377608656883,0.016743168234825134,1.022308111190796,
567349,-0.027438189834356308,-0.012736508622765541,0.9842777252197266,
567359,-0.0196060873568058,0.00927453488111496,1.0090399980545044,
567369,0.014781488105654716,-0.01614890806376934,1.0023019313812256,
567379,-0.00875354465097189,0.00506645068526268,1.035827875137329,
567389,-0.003631382714956999,0.00991975236684084,1.0459669828414917,
567399,-0.01364542730152607,0.0016007856465876102,1.0378950834274292,
567409,0.013359264470636845,0.0041417526081204414,0.9992347955703735,
567419,-0.004188602324575186,-0.011522682383656502,1.023301601409912,
567429,0.01889106072485447,-0.015437940135598183,1.0356899499893188,
567439,-0.0258037019520998,0.01809268444776535,1.0356837511062622,
567449,-0.0023250244557857513,0.01507599838078022,1.0199459791183472,
567459,0.006292694713920355,0.004268138203769922,0.9881865978240967,
567469,0.004045729059726,-0.002733430126681924,0.997749388217926,
567479,-0.020608341321349144,0.044578924775123596,1.0018640756607056,
567489,-0.006717637646943331,0.012092341668903828,1.00320303440094,
567499,-0.007940053939819336,0.04424196481704712,0.9595586061477661,
567509,0.0009161996422335505,0.024110358208417892,0.9892444610595703,
567519,-0.013536352664232254,0.06631544232368469,1.0016124248504639,
567529,-0.007716899272054434,0.022080881521105766,1.0164424180984497,
567539,-0.0031869809608906507,0.03497903421521187,0.9624283313751221,
567549,-0.001106074545532465,0.011730855330824852,0.9750782251358032,
567559,-0.0051697976887226105,0.09005384147167206,1.0290683507919312,
567569,0.006452120840549469,-0.006344369612634182,1.0423071384429932,
567579,-0.030119488015770912,0.007367512211203575,0.996526300907135,
567589,-0.0036625664215534925,0.01834147609770298,0.9852190613746643,
567599,0.012986622750759125,0.08370514959096909,1.0087652206420898,
567609,0.008260351605713367,-0.0335400328040123,1.0060174465179443,
567619,-0.028931425884366035,-0.030464015901088715,1.03240966796875,
567629,-0.008176110684871674,0.04186038300395012,1.0210317373275757,
567639,-0.005825112108141184,0.015700308606028557,1.023486614227295,
567649,0.01662977784872055,0.004754702094942331,1.0093097686767578,
567659,-0.0034974669106304646,-0.0020280375611037016,1.0079466104507446,
567669,0.0132382120937109,0.04270714893937111,1.0289461612701416,
567679,-0.012196190655231476,-0.023997649550437927,1.0129565000534058,
567689,0.022365886718034744,-0.028843572363257408,1.0397456884384155,
567699,0.0063768974505364895,0.03165334463119507,0.9888284206390381,
567709,0.002342996886000037,0.026567138731479645,1.011721134185791,
567719,0.005710133351385593,0.010052128694951534,0.9947094917297363,
567729,-2.136213907988349e-07,0.0052528781816363335,0.9988594055175781,
567739,0.02839050628244877,0.06438282132148743,0.9603368639945984,
567749,0.01656978763639927,0.013601647689938545,0.9733355045318604,
567759,-0.020618220791220665,0.005398305132985115,0.995019793510437,
567769,-0.0059598893858492374,0.034730877727270126,0.9933414459228516,
567779,0.017837537452578545,0.08081892132759094,0.9660488367080688,
567789,0.017497388646006584,0.011152227409183979,1.0476518869400024,
567799,-0.03133437782526016,-0.02778462879359722,1.0275863409042358,
567809,-0.002835649298503995,0.0496932752430439,1.0316814184188843,
567819,0.010771673172712326,0.05121132358908653,1.0090768337249756,
567829,0.042091164737939835,-0.012474071234464645,1.0343644618988037,
567839,0.005257919430732727,0.017755314707756042,0.9994583129882812,
567849,0.0048196264542639256,0.056971475481987,1.0074445009231567,
567859,0.001752380863763392,0.0009290199959650636,1.038459062576294,
567869,0.01757320761680603,-0.026558170095086098,1.0241100788116455,
567879,-0.013955135829746723,0.07441360503435135,0.9780677556991577,
567889,0.0034918063320219517,0.06578411906957626,0.9495000839233398,
567899,0.023866543546319008,-0.0040380083955824375,1.0378011465072632,
567909,-0.01744103617966175,0.0023108392488211393,1.0197092294692993,
567919,-0.03079957142472267,0.04196924343705177,0.9783172607421875,
567929,0.020964905619621277,0.04734363406896591,0.9819867610931396,
567939,-0.0021808668971061707,-0.0116413040086627,1.0069624185562134,
567949,-0.011691415682435036,-0.0006281128153204918,0.9911288022994995,
567959,0.009220372885465622,0.0022852926049381495,1.0103274583816528,
567969,0.0031488407403230667,0.010907762683928013,1.0234131813049316,
567979,0.007026595529168844,-0.007185928523540497,1.0249515771865845,
567989,-0.014881820417940617,0.019840465858578682,1.0026147365570068,
567999,0.002306461799889803,0.001393550424836576,1.0009982585906982,
568009,-0.009283529594540596,0.014902768656611443,1.021681785583496,
568019,-0.00616342481225729,-0.007072259671986103,1.0499677658081055,
568029,-0.013556268066167831,0.014589125290513039,1.0101433992385864,
568039,0.002590359654277563,0.008535713888704777,0.9956033229827881,
568049,0.004505477845668793,0.028267528861761093,0.981473982334137,
568059,0.0013348221546038985,0.009608632884919643,1.009019136428833,
568069,-0.0025616073980927467,-0.004205923993140459,1.0303215980529785,
568079,-0.004080137237906456,-0.010488496161997318,1.0444509983062744,
568089,0.004166556987911463,0.015067556872963905,0.9926204085350037,
568099,-0.0038081693928688765,-0.0022259671241045,0.973228931427002,
568109,-0.0005739521002396941,-0.004416434094309807,0.9922767877578735,
568119,-0.008579287678003311,-0.009063704870641232,1.0478696823120117,
568129,-0.007357879541814327,0.02138281986117363,1.043363332748413,
568139,-0.02025015279650688,-0.0020797906909137964,0.9773077368736267,
568149,-0.006236370652914047,-0.009493875317275524,0.982535719871521,
568159,0.020981397479772568,0.039529021829366684,0.997026801109314,
568169,3.804438529186882e-05,0.004885327536612749,1.0305143594741821,
568179,-0.006022028625011444,0.0076119317673146725,1.0287023782730103,
568189,0.0037417628336697817,0.02527698688209057,1.0312696695327759,
568199,0.008721775375306606,0.04387979581952095,1.03117835521698,
568209,-0.008689318783581257,-0.013834353536367416,0.9744242429733276,
568219,-0.005238649435341358,0.05622406303882599,0.9388265609741211,
568229,0.03200218454003334,0.060328464955091476,0.9920914769172668,
568239,-0.012533138506114483,0.011306146159768105,1.077895998954773,
568249,-0.004008109215646982,-0.03853517025709152,1.0152469873428345,
568259,-0.05132722482085228,0.040254369378089905,0.9518160223960876,
568269,0.02697804942727089,0.10264835506677628,0.9768560528755188,
568279,-0.00922299362719059,-0.028462538495659828,1.029935598373413,
568289,0.009650920517742634,-0.044643376022577286,0.9993040561676025,
568299,-0.032919272780418396,0.06726657599210739,0.9791870713233948,
568309,0.02044128067791462,0.03804117068648338,0.987437903881073,
568319,0.0010155162308365107,0.01850953884422779,0.9579782485961914,
568329,-0.016493532806634903,-0.0013472074642777443,0.9631440043449402,
568339,0.009968985803425312,0.06736356765031815,1.000117540359497,
568349,-0.0020578536204993725,-0.0016809930093586445,0.9859483242034912,
568359,-0.0068509578704833984,0.027507955208420753,1.0070085525512695,
568369,0.013802372850477695,0.019254695624113083,0.9856637120246887,
568379,-0.006711250636726618,0.00028431860846467316,1.0170400142669678,
568389,0.024464597925543785,0.022659968584775925,1.0188528299331665,
568399,0.003789781127125025,0.0071135652251541615,0.9706609845161438,
568409,0.017069319263100624,0.03074200451374054,1.0125925540924072,
568419,0.0037664533592760563,-0.006838144734501839,0.9876521229743958,
568429,0.00826745294034481,-0.03850641846656799,0.9929035902023315,
568439,0.008535145781934261,0.04097071290016174,0.9713377356529236,
568449,0.010776543989777565,-0.0027991952374577522,1.0141351222991943,
568459,-0.018455056473612785,0.005947611760348082,0.9791831374168396,
568469,-0.02004651352763176,-0.01710413210093975,0.970160186290741,
568479,0.018608033657073975,0.10040827840566635,0.945887565612793,
568489,0.024255385622382164,-0.006505048833787441,1.0624617338180542,
568499,0.002754572778940201,-0.02845040336251259,1.0311297178268433,
568509,-0.007774739060550928,0.05411536991596222,0.9876314997673035,
568519,-0.016995878890156746,0.06535828113555908,0.9492120742797852,
568529,-0.004872207064181566,0.008153106085956097,0.9820240139961243,
568539,0.0031191741582006216,0.0031032166443765163,0.9538738131523132,
568549,-0.020970862358808517,0.07222626358270645,0.9951464533805847,
568559,0.007331368513405323,-0.016072025522589684,1.0386343002319336,
568569,-0.023615431040525436,-0.008692748844623566,0.981757402420044,
568579,0.014781744219362736,0.02003103867173195,0.9940165877342224,
